stimuli_1,correct_resp1,stimuli_2,correct_resp2,stimuli_4,correct_resp4,stimuli_5,correct_resp5,time_3,time_6,PGNGS_B1.thisRepN,PGNGS_B1.thisTrialN,PGNGS_B1.thisN,PGNGS_B1.thisIndex,PGNGS_B2.thisRepN,PGNGS_B2.thisTrialN,PGNGS_B2.thisN,PGNGS_B2.thisIndex,PGNGS_B3.thisRepN,PGNGS_B3.thisTrialN,PGNGS_B3.thisN,PGNGS_B3.thisIndex,PGNGS_B4.thisRepN,PGNGS_B4.thisTrialN,PGNGS_B4.thisN,PGNGS_B4.thisIndex,inst_mov.started,key_resp.started,instruct_i1.started,instruct_i1.stopped,insti_resp.started,instruct_i2.started,inst_t1_1.started,inst_t1_1.stopped,inst_t1_2.started,inst_t1_2.stopped,inst1_resp.started,inst_t1_3.started,crosshair.started,block1_resp.started,block1_stim.started,block1_resp.keys,block1_resp.corr,block1_resp.rt,block1_resp.stopped,block1_stim.stopped,f1_response.started,fin_1t.started,inst_t2_1.started,inst_t2_1.stopped,inst_t2_2.started,inst_t2_2.stopped,inst_t2_3.started,inst_t2_3.stopped,inst_t2_4.started,inst_t2_4.stopped,inst2_resp.started,inst_t2_5.started,crosshair.stopped,block2_resp.started,block2_stim.started,block2_resp.keys,block2_resp.corr,block2_resp.rt,block2_resp.stopped,block2_stim.stopped,f2_resp.started,fin_2t.started,inst_t4_1.started,inst_t4_1.stopped,inst_t4_2.started,inst_t4_2.stopped,inst4_resp.started,inst_t4_3.started,block4_resp.started,block4_stim.started,block4_resp.keys,block4_resp.corr,block4_resp.rt,block4_resp.stopped,block4_stim.stopped,f4_resp.started,fin_4t.started,inst_t5_1.started,inst_t5_1.stopped,inst_t5_2.started,inst_t5_2.stopped,inst5_resp.started,inst_t5_3.started,block5_resp.started,block5_stim.started,block5_resp.keys,block5_resp.corr,block5_resp.rt,block5_resp.stopped,block5_stim.stopped,f5_resp.started,fin_5t.started,participant,session,date,expName,psychopyVersion,frameRate,
L_b.bmp,None,L_n.bmp,None,L_m.bmp,None,L_v.bmp,None,0.75,0.75,0,0,0,0,,,,,,,,,,,,,14.96296259999508,14.96296259999508,223.5702869000088,231.58026459999382,231.66366540000308,231.66366540000308,234.14478030000464,246.15147770001204,246.2350534000143,254.2451041000022,254.3282637000084,254.3282637000084,257.09284669999033,258.2375715000089,258.2375715000089,None,1,,,,,,,,,,,,,,,,,,,,,,,,,,,,,,,,,,,,,,,,,,,,,,,,,,,,,,,,TEST,001,2023-04-28_13h07.34.427,PGNGS_RST_750_english,2022.2.5,60.023361088339854,
L_k.bmp,None,L_q.bmp,None,L_b.bmp,None,L_c.bmp,None,0.75,0.75,0,1,1,1,,,,,,,,,,,,,,,,,,,,,,,,,,258.85841419998906,258.85841419998906,None,1,,,,,,,,,,,,,,,,,,,,,,,,,,,,,,,,,,,,,,,,,,,,,,,,,,,,,,,,TEST,001,2023-04-28_13h07.34.427,PGNGS_RST_750_english,2022.2.5,60.023361088339854,
L_s.bmp,n,L_f.bmp,None,L_s.bmp,n,L_j.bmp,None,0.75,0.75,0,2,2,2,,,,,,,,,,,,,,,,,,,,,,,,,,259.6077491999895,259.6077491999895,n,1,0.5225806999951601,,,,,,,,,,,,,,,,,,,,,,,,,,,,,,,,,,,,,,,,,,,,,,,,,,,,,,,TEST,001,2023-04-28_13h07.34.427,PGNGS_RST_750_english,2022.2.5,60.023361088339854,
L_g.bmp,None,L_r.bmp,n,L_b.bmp,None,L_k.bmp,None,0.75,0.75,0,3,3,3,,,,,,,,,,,,,,,,,,,,,,,,,,260.3568693000125,260.3568693000125,None,1,,,,,,,,,,,,,,,,,,,,,,,,,,,,,,,,,,,,,,,,,,,,,,,,,,,,,,,,TEST,001,2023-04-28_13h07.34.427,PGNGS_RST_750_english,2022.2.5,60.023361088339854,
L_j.bmp,None,L_p.bmp,None,L_d.bmp,None,L_w.bmp,None,0.75,0.75,0,4,4,4,,,,,,,,,,,,,,,,,,,,,,,,,,261.1064616999938,261.1064616999938,None,1,,,,,,,,,,,,,,,,,,,,,,,,,,,,,,,,,,,,,,,,,,,,,,,,,,,,,,,,TEST,001,2023-04-28_13h07.34.427,PGNGS_RST_750_english,2022.2.5,60.023361088339854,
L_b.bmp,None,L_k.bmp,None,L_v.bmp,None,L_t.bmp,n,0.75,0.75,0,5,5,5,,,,,,,,,,,,,,,,,,,,,,,,,,261.85590429999866,261.85590429999866,None,1,,,,,,,,,,,,,,,,,,,,,,,,,,,,,,,,,,,,,,,,,,,,,,,,,,,,,,,,TEST,001,2023-04-28_13h07.34.427,PGNGS_RST_750_english,2022.2.5,60.023361088339854,
L_r.bmp,n,L_m.bmp,None,L_b.bmp,None,L_f.bmp,None,0.75,0.75,0,6,6,6,,,,,,,,,,,,,,,,,,,,,,,,,,262.6053804999974,262.6053804999974,n,1,0.39017140000942163,,,,,,,,,,,,,,,,,,,,,,,,,,,,,,,,,,,,,,,,,,,,,,,,,,,,,,,TEST,001,2023-04-28_13h07.34.427,PGNGS_RST_750_english,2022.2.5,60.023361088339854,
L_j.bmp,None,L_f.bmp,None,L_n.bmp,None,L_m.bmp,None,0.75,0.75,0,7,7,7,,,,,,,,,,,,,,,,,,,,,,,,,,263.35518220000085,263.35518220000085,None,1,,,,,,,,,,,,,,,,,,,,,,,,,,,,,,,,,,,,,,,,,,,,,,,,,,,,,,,,TEST,001,2023-04-28_13h07.34.427,PGNGS_RST_750_english,2022.2.5,60.023361088339854,
L_b.bmp,None,L_k.bmp,None,L_c.bmp,None,L_g.bmp,None,0.75,0.75,0,8,8,8,,,,,,,,,,,,,,,,,,,,,,,,,,264.1039611999877,264.1039611999877,None,1,,,,,,,,,,,,,,,,,,,,,,,,,,,,,,,,,,,,,,,,,,,,,,,,,,,,,,,,TEST,001,2023-04-28_13h07.34.427,PGNGS_RST_750_english,2022.2.5,60.023361088339854,
L_n.bmp,None,L_s.bmp,n,L_p.bmp,None,L_l.bmp,None,0.75,0.75,0,9,9,9,,,,,,,,,,,,,,,,,,,,,,,,,,264.853827599989,264.853827599989,None,1,,,,,,,,,,,,,,,,,,,,,,,,,,,,,,,,,,,,,,,,,,,,,,,,,,,,,,,,TEST,001,2023-04-28_13h07.34.427,PGNGS_RST_750_english,2022.2.5,60.023361088339854,
L_l.bmp,None,L_w.bmp,None,L_f.bmp,None,L_w.bmp,None,0.75,0.75,0,10,10,10,,,,,,,,,,,,,,,,,,,,,,,,,,265.6026831000054,265.6026831000054,None,1,,,,,,,,,,,,,,,,,,,,,,,,,,,,,,,,,,,,,,,,,,,,,,,,,,,,,,,,TEST,001,2023-04-28_13h07.34.427,PGNGS_RST_750_english,2022.2.5,60.023361088339854,
L_j.bmp,None,L_j.bmp,None,L_p.bmp,None,L_h.bmp,None,0.75,0.75,0,11,11,11,,,,,,,,,,,,,,,,,,,,,,,,,,266.3518525999971,266.3518525999971,None,1,,,,,,,,,,,,,,,,,,,,,,,,,,,,,,,,,,,,,,,,,,,,,,,,,,,,,,,,TEST,001,2023-04-28_13h07.34.427,PGNGS_RST_750_english,2022.2.5,60.023361088339854,
L_h.bmp,None,L_p.bmp,None,L_t.bmp,n,L_w.bmp,None,0.75,0.25,0,12,12,12,,,,,,,,,,,,,,,,,,,,,,,,,,267.10110669999267,267.10110669999267,None,1,,,,,,,,,,,,,,,,,,,,,,,,,,,,,,,,,,,,,,,,,,,,,,,,,,,,,,,,TEST,001,2023-04-28_13h07.34.427,PGNGS_RST_750_english,2022.2.5,60.023361088339854,
L_r.bmp,n,L_g.bmp,None,L_q.bmp,None,L_g.bmp,None,0.75,0.5,0,13,13,13,,,,,,,,,,,,,,,,,,,,,,,,,,267.850471200014,267.850471200014,n,1,0.40204990000347607,,,,,,,,,,,,,,,,,,,,,,,,,,,,,,,,,,,,,,,,,,,,,,,,,,,,,,,TEST,001,2023-04-28_13h07.34.427,PGNGS_RST_750_english,2022.2.5,60.023361088339854,
L_q.bmp,None,L_q.bmp,None,L_p.bmp,None,L_m.bmp,None,0.75,0.75,0,14,14,14,,,,,,,,,,,,,,,,,,,,,,,,,,268.59984909999184,268.59984909999184,None,1,,,,,,,,,,,,,,,,,,,,,,,,,,,,,,,,,,,,,,,,,,,,,,,,,,,,,,,,TEST,001,2023-04-28_13h07.34.427,PGNGS_RST_750_english,2022.2.5,60.023361088339854,
L_b.bmp,None,L_w.bmp,None,L_m.bmp,None,L_w.bmp,None,0.75,0.75,0,15,15,15,,,,,,,,,,,,,,,,,,,,,,,,,,269.34978180000326,269.34978180000326,None,1,,,,,,,,,,,,,,,,,,,,,,,,,,,,,,,,,,,,,,,,,,,,,,,,,,,,,,,,TEST,001,2023-04-28_13h07.34.427,PGNGS_RST_750_english,2022.2.5,60.023361088339854,
L_g.bmp,None,L_s.bmp,None,L_s.bmp,n,L_h.bmp,None,0.25,0.75,0,16,16,16,,,,,,,,,,,,,,,,,,,,,,,,,,270.0986477000115,270.0986477000115,None,1,,,,,,,,,,,,,,,,,,,,,,,,,,,,,,,,,,,,,,,,,,,,,,,,,,,,,,,,TEST,001,2023-04-28_13h07.34.427,PGNGS_RST_750_english,2022.2.5,60.023361088339854,
L_r.bmp,n,L_f.bmp,None,L_h.bmp,None,L_r.bmp,n,0.5,0.75,0,17,17,17,,,,,,,,,,,,,,,,,,,,,,,,,,270.84817949999706,270.84817949999706,n,1,0.44548729999223724,,,,,,,,,,,,,,,,,,,,,,,,,,,,,,,,,,,,,,,,,,,,,,,,,,,,,,,TEST,001,2023-04-28_13h07.34.427,PGNGS_RST_750_english,2022.2.5,60.023361088339854,
L_f.bmp,None,L_m.bmp,None,L_b.bmp,None,L_j.bmp,None,0.75,0.75,0,18,18,18,,,,,,,,,,,,,,,,,,,,,,,,,,271.59752209999715,271.59752209999715,None,1,,,,,,,,,,,,,,,,,,,,,,,,,,,,,,,,,,,,,,,,,,,,,,,,,,,,,,,,TEST,001,2023-04-28_13h07.34.427,PGNGS_RST_750_english,2022.2.5,60.023361088339854,
L_g.bmp,None,L_j.bmp,None,L_m.bmp,None,L_k.bmp,None,0.75,0.75,0,19,19,19,,,,,,,,,,,,,,,,,,,,,,,,,,272.34681550000096,272.34681550000096,None,1,,,,,,,,,,,,,,,,,,,,,,,,,,,,,,,,,,,,,,,,,,,,,,,,,,,,,,,,TEST,001,2023-04-28_13h07.34.427,PGNGS_RST_750_english,2022.2.5,60.023361088339854,
L_v.bmp,None,L_k.bmp,None,L_s.bmp,n,L_r.bmp,None,0.75,0.75,0,20,20,20,,,,,,,,,,,,,,,,,,,,,,,,,,273.0961746000103,273.0961746000103,None,1,,,,,,,,,,,,,,,,,,,,,,,,,,,,,,,,,,,,,,,,,,,,,,,,,,,,,,,,TEST,001,2023-04-28_13h07.34.427,PGNGS_RST_750_english,2022.2.5,60.023361088339854,
L_f.bmp,None,L_r.bmp,n,L_q.bmp,None,L_k.bmp,None,0.75,0.75,0,21,21,21,,,,,,,,,,,,,,,,,,,,,,,,,,273.8455350000004,273.8455350000004,None,1,,,,,,,,,,,,,,,,,,,,,,,,,,,,,,,,,,,,,,,,,,,,,,,,,,,,,,,,TEST,001,2023-04-28_13h07.34.427,PGNGS_RST_750_english,2022.2.5,60.023361088339854,
L_g.bmp,None,L_k.bmp,None,L_v.bmp,None,L_f.bmp,None,0.75,0.75,0,22,22,22,,,,,,,,,,,,,,,,,,,,,,,,,,274.5952157000138,274.5952157000138,None,1,,,,,,,,,,,,,,,,,,,,,,,,,,,,,,,,,,,,,,,,,,,,,,,,,,,,,,,,TEST,001,2023-04-28_13h07.34.427,PGNGS_RST_750_english,2022.2.5,60.023361088339854,
L_h.bmp,None,L_f.bmp,None,L_l.bmp,None,L_l.bmp,None,0.75,0.75,0,23,23,23,,,,,,,,,,,,,,,,,,,,,,,,,,275.34445800000685,275.34445800000685,None,1,,276.09376690001227,276.09376690001227,,,,,,,,,,,,,,,,,,,,,,,,,,,,,,,,,,,,,,,,,,,,,,,,,,,,,TEST,001,2023-04-28_13h07.34.427,PGNGS_RST_750_english,2022.2.5,60.023361088339854,
L_b.bmp,None,L_l.bmp,None,L_s.bmp,n,L_f.bmp,None,0.75,0.75,0,24,24,24,,,,,,,,,,,,,,,,,,,,,,,,,,276.09376690001227,276.09376690001227,None,1,,,,,,,,,,,,,,,,,,,,,,,,,,,,,,,,,,,,,,,,,,,,,,,,,,,,,,,,TEST,001,2023-04-28_13h07.34.427,PGNGS_RST_750_english,2022.2.5,60.023361088339854,
L_v.bmp,None,L_s.bmp,n,L_j.bmp,None,L_r.bmp,None,0.75,0.75,0,25,25,25,,,,,,,,,,,,,,,,,,,,,,,,,,276.84324690001085,276.84324690001085,None,1,,277.5926053999865,277.5926053999865,,,,,,,,,,,,,,,,,,,,,,,,,,,,,,,,,,,,,,,,,,,,,,,,,,,,,TEST,001,2023-04-28_13h07.34.427,PGNGS_RST_750_english,2022.2.5,60.023361088339854,
L_c.bmp,None,L_n.bmp,None,L_g.bmp,None,L_n.bmp,None,0.75,0.75,0,26,26,26,,,,,,,,,,,,,,,,,,,,,,,,,,277.5926053999865,277.5926053999865,None,1,,278.3422106000071,278.3422106000071,,,,,,,,,,,,,,,,,,,,,,,,,,,,,,,,,,,,,,,,,,,,,,,,,,,,,TEST,001,2023-04-28_13h07.34.427,PGNGS_RST_750_english,2022.2.5,60.023361088339854,
L_l.bmp,None,L_d.bmp,None,L_f.bmp,None,L_d.bmp,None,0.75,0.4,0,27,27,27,,,,,,,,,,,,,,,,,,,,,,,,,,278.3422106000071,278.3422106000071,None,1,,279.0912948999903,279.0912948999903,,,,,,,,,,,,,,,,,,,,,,,,,,,,,,,,,,,,,,,,,,,,,,,,,,,,,TEST,001,2023-04-28_13h07.34.427,PGNGS_RST_750_english,2022.2.5,60.023361088339854,
L_m.bmp,None,L_r.bmp,n,L_t.bmp,n,L_s.bmp,n,0.75,0.35,0,28,28,28,,,,,,,,,,,,,,,,,,,,,,,,,,279.0912948999903,279.0912948999903,None,1,,279.8406263999932,279.8406263999932,,,,,,,,,,,,,,,,,,,,,,,,,,,,,,,,,,,,,,,,,,,,,,,,,,,,,TEST,001,2023-04-28_13h07.34.427,PGNGS_RST_750_english,2022.2.5,60.023361088339854,
L_n.bmp,None,L_v.bmp,None,L_d.bmp,None,L_v.bmp,None,0.75,0.75,0,29,29,29,,,,,,,,,,,,,,,,,,,,,,,,,,279.8406263999932,279.8406263999932,None,1,,280.59051270000055,280.59051270000055,,,,,,,,,,,,,,,,,,,,,,,,,,,,,,,,,,,,,,,,,,,,,,,,,,,,,TEST,001,2023-04-28_13h07.34.427,PGNGS_RST_750_english,2022.2.5,60.023361088339854,
L_p.bmp,None,L_f.bmp,None,L_c.bmp,None,L_f.bmp,None,0.75,0.75,0,30,30,30,,,,,,,,,,,,,,,,,,,,,,,,,,280.59051270000055,280.59051270000055,None,1,,,,,,,,,,,,,,,,,,,,,,,,,,,,,,,,,,,,,,,,,,,,,,,,,,,,,,,,TEST,001,2023-04-28_13h07.34.427,PGNGS_RST_750_english,2022.2.5,60.023361088339854,
L_v.bmp,None,L_w.bmp,None,L_n.bmp,None,L_w.bmp,None,0.75,0.75,0,31,31,31,,,,,,,,,,,,,,,,,,,,,,,,,,281.35666889999993,281.35666889999993,None,1,,,,,,,,,,,,,,,,,,,,,,,,,,,,,,,,,,,,,,,,,,,,,,,,,,,,,,,,TEST,001,2023-04-28_13h07.34.427,PGNGS_RST_750_english,2022.2.5,60.023361088339854,
L_p.bmp,None,L_q.bmp,None,L_h.bmp,None,L_q.bmp,None,0.75,0.75,0,32,32,32,,,,,,,,,,,,,,,,,,,,,,,,,,282.1055771000101,282.1055771000101,None,1,,,,,,,,,,,,,,,,,,,,,,,,,,,,,,,,,,,,,,,,,,,,,,,,,,,,,,,,TEST,001,2023-04-28_13h07.34.427,PGNGS_RST_750_english,2022.2.5,60.023361088339854,
L_l.bmp,None,L_k.bmp,None,L_g.bmp,None,L_k.bmp,None,0.75,0.75,0,33,33,33,,,,,,,,,,,,,,,,,,,,,,,,,,282.85486110000056,282.85486110000056,None,1,,,,,,,,,,,,,,,,,,,,,,,,,,,,,,,,,,,,,,,,,,,,,,,,,,,,,,,,TEST,001,2023-04-28_13h07.34.427,PGNGS_RST_750_english,2022.2.5,60.023361088339854,
L_r.bmp,n,L_b.bmp,None,L_l.bmp,None,L_b.bmp,None,0.75,0.75,0,34,34,34,,,,,,,,,,,,,,,,,,,,,,,,,,283.604468000005,283.604468000005,n,1,0.47946659999433905,,,,,,,,,,,,,,,,,,,,,,,,,,,,,,,,,,,,,,,,,,,,,,,,,,,,,,,TEST,001,2023-04-28_13h07.34.427,PGNGS_RST_750_english,2022.2.5,60.023361088339854,
L_q.bmp,None,L_j.bmp,None,L_b.bmp,None,L_j.bmp,None,0.75,0.75,0,35,35,35,,,,,,,,,,,,,,,,,,,,,,,,,,284.35430820001056,284.35430820001056,None,1,,,,,,,,,,,,,,,,,,,,,,,,,,,,,,,,,,,,,,,,,,,,,,,,,,,,,,,,TEST,001,2023-04-28_13h07.34.427,PGNGS_RST_750_english,2022.2.5,60.023361088339854,
L_g.bmp,None,L_k.bmp,None,L_t.bmp,n,L_l.bmp,None,0.75,0.3,0,36,36,36,,,,,,,,,,,,,,,,,,,,,,,,,,285.1030776000116,285.1030776000116,None,1,,,,,,,,,,,,,,,,,,,,,,,,,,,,,,,,,,,,,,,,,,,,,,,,,,,,,,,,TEST,001,2023-04-28_13h07.34.427,PGNGS_RST_750_english,2022.2.5,60.023361088339854,
L_r.bmp,n,L_b.bmp,None,L_k.bmp,None,L_b.bmp,None,0.75,0.45,0,37,37,37,,,,,,,,,,,,,,,,,,,,,,,,,,285.85245599999325,285.85245599999325,n,1,0.4445879999839235,,,,,,,,,,,,,,,,,,,,,,,,,,,,,,,,,,,,,,,,,,,,,,,,,,,,,,,TEST,001,2023-04-28_13h07.34.427,PGNGS_RST_750_english,2022.2.5,60.023361088339854,
L_b.bmp,None,L_r.bmp,None,L_j.bmp,None,L_t.bmp,n,0.75,0.75,0,38,38,38,,,,,,,,,,,,,,,,,,,,,,,,,,286.6024432000122,286.6024432000122,None,1,,,,,,,,,,,,,,,,,,,,,,,,,,,,,,,,,,,,,,,,,,,,,,,,,,,,,,,,TEST,001,2023-04-28_13h07.34.427,PGNGS_RST_750_english,2022.2.5,60.023361088339854,
L_j.bmp,None,L_q.bmp,None,L_f.bmp,None,L_q.bmp,None,0.4,0.75,0,39,39,39,,,,,,,,,,,,,,,,,,,,,,,,,,287.35115150001366,287.35115150001366,None,1,,,,,,,,,,,,,,,,,,,,,,,,,,,,,,,,,,,,,,,,,,,,,,,,,,,,,,,,TEST,001,2023-04-28_13h07.34.427,PGNGS_RST_750_english,2022.2.5,60.023361088339854,
L_g.bmp,None,L_m.bmp,None,L_g.bmp,None,L_m.bmp,None,0.35,0.75,0,40,40,40,,,,,,,,,,,,,,,,,,,,,,,,,,288.1006450999994,288.1006450999994,None,1,,,,,,,,,,,,,,,,,,,,,,,,,,,,,,,,,,,,,,,,,,,,,,,,,,,,,,,,TEST,001,2023-04-28_13h07.34.427,PGNGS_RST_750_english,2022.2.5,60.023361088339854,
L_s.bmp,n,L_q.bmp,None,L_h.bmp,None,L_q.bmp,None,0.75,0.75,0,41,41,41,,,,,,,,,,,,,,,,,,,,,,,,,,288.8502048999944,288.8502048999944,n,1,0.4028323999955319,,,,,,,,,,,,,,,,,,,,,,,,,,,,,,,,,,,,,,,,,,,,,,,,,,,,,,,TEST,001,2023-04-28_13h07.34.427,PGNGS_RST_750_english,2022.2.5,60.023361088339854,
L_v.bmp,None,L_f.bmp,None,L_b.bmp,None,L_j.bmp,None,0.75,0.75,0,42,42,42,,,,,,,,,,,,,,,,,,,,,,,,,,289.5995237999887,289.5995237999887,None,1,,,,,,,,,,,,,,,,,,,,,,,,,,,,,,,,,,,,,,,,,,,,,,,,,,,,,,,,TEST,001,2023-04-28_13h07.34.427,PGNGS_RST_750_english,2022.2.5,60.023361088339854,
L_m.bmp,None,L_j.bmp,None,L_v.bmp,None,L_m.bmp,None,0.75,0.75,0,43,43,43,,,,,,,,,,,,,,,,,,,,,,,,,,290.34890030001407,290.34890030001407,None,1,,,,,,,,,,,,,,,,,,,,,,,,,,,,,,,,,,,,,,,,,,,,,,,,,,,,,,,,TEST,001,2023-04-28_13h07.34.427,PGNGS_RST_750_english,2022.2.5,60.023361088339854,
L_b.bmp,None,L_m.bmp,None,L_b.bmp,None,L_b.bmp,None,0.75,0.75,0,44,44,44,,,,,,,,,,,,,,,,,,,,,,,,,,291.0982090999896,291.0982090999896,None,1,,,,,,,,,,,,,,,,,,,,,,,,,,,,,,,,,,,,,,,,,,,,,,,,,,,,,,,,TEST,001,2023-04-28_13h07.34.427,PGNGS_RST_750_english,2022.2.5,60.023361088339854,
L_s.bmp,n,L_b.bmp,None,L_r.bmp,n,L_m.bmp,None,0.75,0.75,0,45,45,45,,,,,,,,,,,,,,,,,,,,,,,,,,291.84763619999285,291.84763619999285,n,1,0.45121659999131225,,,,,,,,,,,,,,,,,,,,,,,,,,,,,,,,,,,,,,,,,,,,,,,,,,,,,,,TEST,001,2023-04-28_13h07.34.427,PGNGS_RST_750_english,2022.2.5,60.023361088339854,
L_b.bmp,None,L_j.bmp,None,L_b.bmp,None,L_d.bmp,None,0.75,0.75,0,46,46,46,,,,,,,,,,,,,,,,,,,,,,,,,,292.597277199995,292.597277199995,None,1,,,,,,,,,,,,,,,,,,,,,,,,,,,,,,,,,,,,,,,,,,,,,,,,,,,,,,,,TEST,001,2023-04-28_13h07.34.427,PGNGS_RST_750_english,2022.2.5,60.023361088339854,
L_d.bmp,None,L_m.bmp,None,L_n.bmp,None,L_n.bmp,None,0.75,0.75,0,47,47,47,,,,,,,,,,,,,,,,,,,,,,,,,,293.3466322000022,293.3466322000022,None,1,,,,,,,,,,,,,,,,,,,,,,,,,,,,,,,,,,,,,,,,,,,,,,,,,,,,,,,,TEST,001,2023-04-28_13h07.34.427,PGNGS_RST_750_english,2022.2.5,60.023361088339854,
L_v.bmp,None,L_n.bmp,None,L_l.bmp,None,L_l.bmp,None,0.75,0.75,0,48,48,48,,,,,,,,,,,,,,,,,,,,,,,,,,294.09578400000464,294.09578400000464,None,1,,,,,,,,,,,,,,,,,,,,,,,,,,,,,,,,,,,,,,,,,,,,,,,,,,,,,,,,TEST,001,2023-04-28_13h07.34.427,PGNGS_RST_750_english,2022.2.5,60.023361088339854,
L_b.bmp,None,L_f.bmp,None,L_j.bmp,None,L_j.bmp,None,0.75,0.75,0,49,49,49,,,,,,,,,,,,,,,,,,,,,,,,,,294.845511099993,294.845511099993,None,1,,,,,,,,,,,,,,,,,,,,,,,,,,,,,,,,,,,,,,,,,,,,,,,,,,,,,,,,TEST,001,2023-04-28_13h07.34.427,PGNGS_RST_750_english,2022.2.5,60.023361088339854,
L_n.bmp,None,L_m.bmp,None,L_h.bmp,None,L_h.bmp,None,0.75,0.75,0,50,50,50,,,,,,,,,,,,,,,,,,,,,,,,,,295.5947288000025,295.5947288000025,None,1,,,,,,,,,,,,,,,,,,,,,,,,,,,,,,,,,,,,,,,,,,,,,,,,,,,,,,,,TEST,001,2023-04-28_13h07.34.427,PGNGS_RST_750_english,2022.2.5,60.023361088339854,
L_c.bmp,None,L_p.bmp,None,L_t.bmp,n,L_s.bmp,n,0.75,0.75,0,51,51,51,,,,,,,,,,,,,,,,,,,,,,,,,,296.34435870000743,296.34435870000743,None,1,,,,,,,,,,,,,,,,,,,,,,,,,,,,,,,,,,,,,,,,,,,,,,,,,,,,,,,,TEST,001,2023-04-28_13h07.34.427,PGNGS_RST_750_english,2022.2.5,60.023361088339854,
L_p.bmp,None,L_l.bmp,None,L_q.bmp,None,L_q.bmp,None,0.75,0.75,0,52,52,52,,,,,,,,,,,,,,,,,,,,,,,,,,297.1099183000042,297.1099183000042,None,1,,,,,,,,,,,,,,,,,,,,,,,,,,,,,,,,,,,,,,,,,,,,,,,,,,,,,,,,TEST,001,2023-04-28_13h07.34.427,PGNGS_RST_750_english,2022.2.5,60.023361088339854,
L_f.bmp,None,L_h.bmp,None,L_b.bmp,None,L_b.bmp,None,0.75,0.75,0,53,53,53,,,,,,,,,,,,,,,,,,,,,,,,,,297.85943979999865,297.85943979999865,None,1,,,,,,,,,,,,,,,,,,,,,,,,,,,,,,,,,,,,,,,,,,,,,,,,,,,,,,,,TEST,001,2023-04-28_13h07.34.427,PGNGS_RST_750_english,2022.2.5,60.023361088339854,
L_p.bmp,None,L_s.bmp,n,L_g.bmp,None,L_g.bmp,None,0.75,0.75,0,54,54,54,,,,,,,,,,,,,,,,,,,,,,,,,,298.60911670001224,298.60911670001224,None,1,,,,,,,,,,,,,,,,,,,,,,,,,,,,,,,,,,,,,,,,,,,,,,,,,,,,,,,,TEST,001,2023-04-28_13h07.34.427,PGNGS_RST_750_english,2022.2.5,60.023361088339854,
L_r.bmp,n,L_v.bmp,None,L_t.bmp,n,L_t.bmp,n,0.75,0.75,0,55,55,55,,,,,,,,,,,,,,,,,,,,,,,,,,299.358135699993,299.358135699993,n,1,0.40370150000671856,,,,,,,,,,,,,,,,,,,,,,,,,,,,,,,,,,,,,,,,,,,,,,,,,,,,,,,TEST,001,2023-04-28_13h07.34.427,PGNGS_RST_750_english,2022.2.5,60.023361088339854,
L_q.bmp,None,L_h.bmp,None,L_g.bmp,None,L_g.bmp,None,0.75,0.75,0,56,56,56,,,,,,,,,,,,,,,,,,,,,,,,,,300.10767970001325,300.10767970001325,None,1,,,,,,,,,,,,,,,,,,,,,,,,,,,,,,,,,,,,,,,,,,,,,,,,,,,,,,,,TEST,001,2023-04-28_13h07.34.427,PGNGS_RST_750_english,2022.2.5,60.023361088339854,
L_f.bmp,None,L_k.bmp,None,L_k.bmp,None,L_l.bmp,None,0.75,0.75,0,57,57,57,,,,,,,,,,,,,,,,,,,,,,,,,,300.85709289999795,300.85709289999795,None,1,,,,,,,,,,,,,,,,,,,,,,,,,,,,,,,,,,,,,,,,,,,,,,,,,,,,,,,,TEST,001,2023-04-28_13h07.34.427,PGNGS_RST_750_english,2022.2.5,60.023361088339854,
L_s.bmp,n,L_r.bmp,n,L_f.bmp,None,L_r.bmp,n,0.75,0.75,0,58,58,58,,,,,,,,,,,,,,,,,,,,,,,,,,301.60659119999036,301.60659119999036,n,1,0.46610259998124093,,,,,,,,,,,,,,,,,,,,,,,,,,,,,,,,,,,,,,,,,,,,,,,,,,,,,,,TEST,001,2023-04-28_13h07.34.427,PGNGS_RST_750_english,2022.2.5,60.023361088339854,
L_m.bmp,None,L_q.bmp,None,L_l.bmp,None,L_f.bmp,None,0.75,0.75,0,59,59,59,,,,,,,,,,,,,,,,,,,,,,,,,,302.3554780000122,302.3554780000122,None,1,,,,,,,,,,,,,,,,,,,,,,,,,,,,,,,,,,,,,,,,,,,,,,,,,,,,,,,,TEST,001,2023-04-28_13h07.34.427,PGNGS_RST_750_english,2022.2.5,60.023361088339854,
L_h.bmp,None,L_d.bmp,None,L_r.bmp,n,L_k.bmp,None,0.75,0.75,0,60,60,60,,,,,,,,,,,,,,,,,,,,,,,,,,303.1051787000033,303.1051787000033,None,1,,,,,,,,,,,,,,,,,,,,,,,,,,,,,,,,,,,,,,,,,,,,,,,,,,,,,,,,TEST,001,2023-04-28_13h07.34.427,PGNGS_RST_750_english,2022.2.5,60.023361088339854,
L_b.bmp,None,L_m.bmp,None,L_v.bmp,None,L_v.bmp,None,0.3,0.75,0,61,61,61,,,,,,,,,,,,,,,,,,,,,,,,,,303.85466420001467,303.85466420001467,None,1,,,,,,,,,,,,,,,,,,,,,,,,,,,,,,,,,,,,,,,,,,,,,,,,,,,,,,,,TEST,001,2023-04-28_13h07.34.427,PGNGS_RST_750_english,2022.2.5,60.023361088339854,
L_m.bmp,None,L_j.bmp,None,L_c.bmp,None,L_c.bmp,None,0.45,0.75,0,62,62,62,,,,,,,,,,,,,,,,,,,,,,,,,,304.6038484000019,304.6038484000019,None,1,,,,,,,,,,,,,,,,,,,,,,,,,,,,,,,,,,,,,,,,,,,,,,,,,,,,,,,,TEST,001,2023-04-28_13h07.34.427,PGNGS_RST_750_english,2022.2.5,60.023361088339854,
L_q.bmp,None,L_f.bmp,None,L_l.bmp,None,L_l.bmp,None,0.75,0.4,0,63,63,63,,,,,,,,,,,,,,,,,,,,,,,,,,305.3689832999953,305.3689832999953,None,1,,,,,,,,,,,,,,,,,,,,,,,,,,,,,,,,,,,,,,,,,,,,,,,,,,,,,,,,TEST,001,2023-04-28_13h07.34.427,PGNGS_RST_750_english,2022.2.5,60.023361088339854,
L_s.bmp,n,L_d.bmp,None,L_m.bmp,None,L_m.bmp,None,0.75,0.35,0,64,64,64,,,,,,,,,,,,,,,,,,,,,,,,,,306.1026458000124,306.1026458000124,n,1,0.639535900001647,,,,,,,,,,,,,,,,,,,,,,,,,,,,,,,,,,,,,,,,,,,,,,,,,,,,,,,TEST,001,2023-04-28_13h07.34.427,PGNGS_RST_750_english,2022.2.5,60.023361088339854,
L_v.bmp,None,L_b.bmp,None,L_n.bmp,None,L_n.bmp,None,0.75,0.75,0,65,65,65,,,,,,,,,,,,,,,,,,,,,,,,,,306.8518133999896,306.8518133999896,None,1,,,,,,,,,,,,,,,,,,,,,,,,,,,,,,,,,,,,,,,,,,,,,,,,,,,,,,,,TEST,001,2023-04-28_13h07.34.427,PGNGS_RST_750_english,2022.2.5,60.023361088339854,
L_l.bmp,None,L_p.bmp,None,L_r.bmp,n,L_p.bmp,None,0.75,0.75,0,66,66,66,,,,,,,,,,,,,,,,,,,,,,,,,,307.6017842000001,307.6017842000001,None,1,,,,,,,,,,,,,,,,,,,,,,,,,,,,,,,,,,,,,,,,,,,,,,,,,,,,,,,,TEST,001,2023-04-28_13h07.34.427,PGNGS_RST_750_english,2022.2.5,60.023361088339854,
L_s.bmp,n,L_w.bmp,None,L_f.bmp,None,L_v.bmp,None,0.75,0.75,0,67,67,67,,,,,,,,,,,,,,,,,,,,,,,,,,308.35117020001053,308.35117020001053,n,1,0.44314739998662844,,,,,,,,,,,,,,,,,,,,,,,,,,,,,,,,,,,,,,,,,,,,,,,,,,,,,,,TEST,001,2023-04-28_13h07.34.427,PGNGS_RST_750_english,2022.2.5,60.023361088339854,
L_j.bmp,None,L_d.bmp,None,L_p.bmp,None,L_p.bmp,None,0.75,0.75,0,68,68,68,,,,,,,,,,,,,,,,,,,,,,,,,,309.10024259999045,309.10024259999045,None,1,,,,,,,,,,,,,,,,,,,,,,,,,,,,,,,,,,,,,,,,,,,,,,,,,,,,,,,,TEST,001,2023-04-28_13h07.34.427,PGNGS_RST_750_english,2022.2.5,60.023361088339854,
L_g.bmp,None,L_f.bmp,None,L_l.bmp,None,L_l.bmp,None,0.75,0.75,0,69,69,69,,,,,,,,,,,,,,,,,,,,,,,,,,309.8493207000138,309.8493207000138,None,1,,,,,,,,,,,,,,,,,,,,,,,,,,,,,,,,,,,,,,,,,,,,,,,,,,,,,,,,TEST,001,2023-04-28_13h07.34.427,PGNGS_RST_750_english,2022.2.5,60.023361088339854,
L_f.bmp,None,L_r.bmp,None,L_r.bmp,n,L_r.bmp,None,0.75,0.75,0,70,70,70,,,,,,,,,,,,,,,,,,,,,,,,,,310.5988769000105,310.5988769000105,None,1,,,,,,,,,,,,,,,,,,,,,,,,,,,,,,,,,,,,,,,,,,,,,,,,,,,,,,,,TEST,001,2023-04-28_13h07.34.427,PGNGS_RST_750_english,2022.2.5,60.023361088339854,
L_d.bmp,None,L_p.bmp,None,L_q.bmp,None,L_q.bmp,None,0.75,0.75,0,71,71,71,,,,,,,,,,,,,,,,,,,,,,,,,,311.348482100002,311.348482100002,None,1,,,,,,,,,,,,,,,,,,,,,,,,,,,,,,,,,,,,,,,,,,,,,,,,,,,,,,,,TEST,001,2023-04-28_13h07.34.427,PGNGS_RST_750_english,2022.2.5,60.023361088339854,
L_r.bmp,n,L_d.bmp,None,L_g.bmp,None,L_f.bmp,None,0.75,0.75,0,72,72,72,,,,,,,,,,,,,,,,,,,,,,,,,,312.09758440000587,312.09758440000587,n,1,0.4356987999926787,,,,,,,,,,,,,,,,,,,,,,,,,,,,,,,,,,,,,,,,,,,,,,,,,,,,,,,TEST,001,2023-04-28_13h07.34.427,PGNGS_RST_750_english,2022.2.5,60.023361088339854,
L_c.bmp,None,L_l.bmp,None,L_r.bmp,n,L_m.bmp,None,0.75,0.75,0,73,73,73,,,,,,,,,,,,,,,,,,,,,,,,,,312.84699220000766,312.84699220000766,None,1,,,,,,,,,,,,,,,,,,,,,,,,,,,,,,,,,,,,,,,,,,,,,,,,,,,,,,,,TEST,001,2023-04-28_13h07.34.427,PGNGS_RST_750_english,2022.2.5,60.023361088339854,
L_n.bmp,None,L_h.bmp,None,L_b.bmp,None,L_p.bmp,None,0.75,0.75,0,74,74,74,,,,,,,,,,,,,,,,,,,,,,,,,,313.59638659999473,313.59638659999473,None,1,,,,,,,,,,,,,,,,,,,,,,,,,,,,,,,,,,,,,,,,,,,,,,,,,,,,,,,,TEST,001,2023-04-28_13h07.34.427,PGNGS_RST_750_english,2022.2.5,60.023361088339854,
L_h.bmp,None,L_l.bmp,None,L_j.bmp,None,L_l.bmp,None,0.75,0.75,0,75,75,75,,,,,,,,,,,,,,,,,,,,,,,,,,314.3463566999999,314.3463566999999,None,1,,,,,,,,,,,,,,,,,,,,,,,,,,,,,,,,,,,,,,,,,,,,,,,,,,,,,,,,TEST,001,2023-04-28_13h07.34.427,PGNGS_RST_750_english,2022.2.5,60.023361088339854,
L_g.bmp,None,L_m.bmp,None,L_g.bmp,None,L_h.bmp,None,0.75,0.75,0,76,76,76,,,,,,,,,,,,,,,,,,,,,,,,,,315.09498789999634,315.09498789999634,None,1,,,,,,,,,,,,,,,,,,,,,,,,,,,,,,,,,,,,,,,,,,,,,,,,,,,,,,,,TEST,001,2023-04-28_13h07.34.427,PGNGS_RST_750_english,2022.2.5,60.023361088339854,
L_l.bmp,None,L_j.bmp,None,L_v.bmp,None,L_s.bmp,n,0.75,0.75,0,77,77,77,,,,,,,,,,,,,,,,,,,,,,,,,,315.8443039999984,315.8443039999984,None,1,,316.5938480999903,316.5938480999903,,,,,,,,,,,,,,,,,,,,,,,,,,,,,,,,,,,,,,,,,,,,,,,,,,,,,TEST,001,2023-04-28_13h07.34.427,PGNGS_RST_750_english,2022.2.5,60.023361088339854,
L_s.bmp,n,L_p.bmp,None,L_s.bmp,n,L_v.bmp,None,0.75,0.75,0,78,78,78,,,,,,,,,,,,,,,,,,,,,,,,,,316.5938480999903,316.5938480999903,n,1,0.4058437999919988,317.34312949999,317.34312949999,,,,,,,,,,,,,,,,,,,,,,,,,,,,,,,,,,,,,,,,,,,,,,,,,,,,,TEST,001,2023-04-28_13h07.34.427,PGNGS_RST_750_english,2022.2.5,60.023361088339854,
L_f.bmp,None,L_b.bmp,None,L_b.bmp,None,L_p.bmp,None,0.75,0.75,0,79,79,79,,,,,,,,,,,,,,,,,,,,,,,,,,317.34312949999,317.34312949999,None,1,,318.09302599998773,318.09302599998773,,,,,,,,,,,,,,,,,,,,,,,,,,,,,,,,,,,,,,,,,,,,,,,,,,,,,TEST,001,2023-04-28_13h07.34.427,PGNGS_RST_750_english,2022.2.5,60.023361088339854,
L_n.bmp,None,L_f.bmp,None,L_v.bmp,None,L_d.bmp,None,0.75,0.75,0,80,80,80,,,,,,,,,,,,,,,,,,,,,,,,,,318.09302599998773,318.09302599998773,None,1,,,,,,,,,,,,,,,,,,,,,,,,,,,,,,,,,,,,,,,,,,,,,,,,,,,,,,,,TEST,001,2023-04-28_13h07.34.427,PGNGS_RST_750_english,2022.2.5,60.023361088339854,
L_w.bmp,None,L_s.bmp,n,L_h.bmp,None,L_s.bmp,None,0.75,0.75,0,81,81,81,,,,,,,,,,,,,,,,,,,,,,,,,,318.8586438999919,318.8586438999919,None,1,,,,,,,,,,,,,,,,,,,,,,,,,,,,,,,,,,,,,,,,,,,,,,,,,,,,,,,,TEST,001,2023-04-28_13h07.34.427,PGNGS_RST_750_english,2022.2.5,60.023361088339854,
L_b.bmp,None,L_l.bmp,None,L_w.bmp,None,L_j.bmp,None,0.75,0.75,0,82,82,82,,,,,,,,,,,,,,,,,,,,,,,,,,319.6081906000036,319.6081906000036,None,1,,,,,,,,,,,,,,,,,,,,,,,,,,,,,,,,,,,,,,,,,,,,,,,,,,,,,,,,TEST,001,2023-04-28_13h07.34.427,PGNGS_RST_750_english,2022.2.5,60.023361088339854,
L_v.bmp,None,L_j.bmp,None,L_m.bmp,None,L_d.bmp,None,0.75,0.75,0,83,83,83,,,,,,,,,,,,,,,,,,,,,,,,,,320.35739220000687,320.35739220000687,None,1,,,,,,,,,,,,,,,,,,,,,,,,,,,,,,,,,,,,,,,,,,,,,,,,,,,,,,,,TEST,001,2023-04-28_13h07.34.427,PGNGS_RST_750_english,2022.2.5,60.023361088339854,
L_s.bmp,n,L_r.bmp,n,L_j.bmp,None,L_b.bmp,None,0.4,0.75,0,84,84,84,,,,,,,,,,,,,,,,,,,,,,,,,,321.10681500000646,321.10681500000646,n,1,0.5013099999923725,,,,,,,,,,,,,,,,,,,,,,,,,,,,,,,,,,,,,,,,,,,,,,,,,,,,,,,TEST,001,2023-04-28_13h07.34.427,PGNGS_RST_750_english,2022.2.5,60.023361088339854,
L_q.bmp,None,L_m.bmp,None,L_m.bmp,None,L_t.bmp,n,0.35,0.75,0,85,85,85,,,,,,,,,,,,,,,,,,,,,,,,,,321.85633969999617,321.85633969999617,None,1,,,,,,,,,,,,,,,,,,,,,,,,,,,,,,,,,,,,,,,,,,,,,,,,,,,,,,,,TEST,001,2023-04-28_13h07.34.427,PGNGS_RST_750_english,2022.2.5,60.023361088339854,
L_d.bmp,None,L_v.bmp,None,L_g.bmp,None,L_q.bmp,None,0.75,0.75,0,86,86,86,,,,,,,,,,,,,,,,,,,,,,,,,,322.6054674999905,322.6054674999905,None,1,,,,,,,,,,,,,,,,,,,,,,,,,,,,,,,,,,,,,,,,,,,,,,,,,,,,,,,,TEST,001,2023-04-28_13h07.34.427,PGNGS_RST_750_english,2022.2.5,60.023361088339854,
L_r.bmp,n,L_d.bmp,None,L_k.bmp,None,L_m.bmp,None,0.75,0.3,0,87,87,87,,,,,,,,,,,,,,,,,,,,,,,,,,323.35488930001156,323.35488930001156,n,1,0.4534877999976743,,,,,,,,,,,,,,,,,,,,,,,,,,,,,,,,,,,,,,,,,,,,,,,,,,,,,,,TEST,001,2023-04-28_13h07.34.427,PGNGS_RST_750_english,2022.2.5,60.023361088339854,
L_v.bmp,None,L_s.bmp,n,L_b.bmp,None,L_q.bmp,None,0.75,0.45,0,88,88,88,,,,,,,,,,,,,,,,,,,,,,,,,,324.1044538000133,324.1044538000133,None,1,,,,,,,,,,,,,,,,,,,,,,,,,,,,,,,,,,,,,,,,,,,,,,,,,,,,,,,,TEST,001,2023-04-28_13h07.34.427,PGNGS_RST_750_english,2022.2.5,60.023361088339854,
L_c.bmp,None,L_j.bmp,None,L_r.bmp,n,L_s.bmp,n,0.75,0.75,0,89,89,89,,,,,,,,,,,,,,,,,,,,,,,,,,324.8538569000084,324.8538569000084,None,1,,,,,,,,,,,,,,,,,,,,,,,,,,,,,,,,,,,,,,,,,,,,,,,,,,,,,,,,TEST,001,2023-04-28_13h07.34.427,PGNGS_RST_750_english,2022.2.5,60.023361088339854,
L_j.bmp,None,L_d.bmp,None,L_n.bmp,None,L_d.bmp,None,0.75,0.75,0,90,90,90,,,,,,,,,,,,,,,,,,,,,,,,,,325.6029363000125,325.6029363000125,None,1,,,,,,,,,,,,,,,,,,,,,,,,,,,,,,,,,,,,,,,,,,,,,,,,,,,,,,,,TEST,001,2023-04-28_13h07.34.427,PGNGS_RST_750_english,2022.2.5,60.023361088339854,
L_k.bmp,None,L_b.bmp,None,L_q.bmp,None,L_w.bmp,None,0.75,0.75,0,91,91,91,,,,,,,,,,,,,,,,,,,,,,,,,,326.3528245000052,326.3528245000052,None,1,,,,,,,,,,,,,,,,,,,,,,,,,,,,,,,,,,,,,,,,,,,,,,,,,,,,,,,,TEST,001,2023-04-28_13h07.34.427,PGNGS_RST_750_english,2022.2.5,60.023361088339854,
L_w.bmp,None,L_s.bmp,None,L_f.bmp,None,L_p.bmp,None,0.75,0.75,0,92,92,92,,,,,,,,,,,,,,,,,,,,,,,,,,327.10163429999375,327.10163429999375,None,1,,,,,,,,,,,,,,,,,,,,,,,,,,,,,,,,,,,,,,,,,,,,,,,,,,,,,,,,TEST,001,2023-04-28_13h07.34.427,PGNGS_RST_750_english,2022.2.5,60.023361088339854,
L_s.bmp,n,L_q.bmp,None,L_t.bmp,n,L_f.bmp,None,0.75,0.75,0,93,93,93,,,,,,,,,,,,,,,,,,,,,,,,,,327.85129459999735,327.85129459999735,n,1,0.4725767000054475,,,,,,,,,,,,,,,,,,,,,,,,,,,,,,,,,,,,,,,,,,,,,,,,,,,,,,,TEST,001,2023-04-28_13h07.34.427,PGNGS_RST_750_english,2022.2.5,60.023361088339854,
L_f.bmp,None,L_m.bmp,None,L_p.bmp,None,L_s.bmp,None,0.75,0.75,0,94,94,94,,,,,,,,,,,,,,,,,,,,,,,,,,328.60077690001344,328.60077690001344,None,1,,,,,,,,,,,,,,,,,,,,,,,,,,,,,,,,,,,,,,,,,,,,,,,,,,,,,,,,TEST,001,2023-04-28_13h07.34.427,PGNGS_RST_750_english,2022.2.5,60.023361088339854,
L_m.bmp,None,L_q.bmp,None,L_k.bmp,None,L_w.bmp,None,0.75,0.75,0,95,95,95,,,,,,,,,,,,,,,,,,,,,,,,,,329.3499071999977,329.3499071999977,None,1,,,,,,,,,,,,,,,,,,,,,,,,,,,,,,,,,,,,,,,,,,,,,,,,,,,,,,,,TEST,001,2023-04-28_13h07.34.427,PGNGS_RST_750_english,2022.2.5,60.023361088339854,
L_g.bmp,None,L_d.bmp,None,L_g.bmp,None,L_m.bmp,None,0.75,0.75,0,96,96,96,,,,,,,,,,,,,,,,,,,,,,,,,,330.09939729998587,330.09939729998587,None,1,,,,,,,,,,,,,,,,,,,,,,,,,,,,,,,,,,,,,,,,,,,,,,,,,,,,,,,,TEST,001,2023-04-28_13h07.34.427,PGNGS_RST_750_english,2022.2.5,60.023361088339854,
L_l.bmp,None,L_r.bmp,n,L_f.bmp,None,L_t.bmp,n,0.75,0.75,0,97,97,97,,,,,,,,,,,,,,,,,,,,,,,,,,330.8485384999949,330.8485384999949,None,1,,,,,,,,,,,,,,,,,,,,,,,,,,,,,,,,,,,,,,,,,,,,,,,,,,,,,,,,TEST,001,2023-04-28_13h07.34.427,PGNGS_RST_750_english,2022.2.5,60.023361088339854,
L_w.bmp,None,L_w.bmp,None,L_k.bmp,None,L_p.bmp,None,0.75,0.75,0,98,98,98,,,,,,,,,,,,,,,,,,,,,,,,,,331.59864449998713,331.59864449998713,None,1,,,,,,,,,,,,,,,,,,,,,,,,,,,,,,,,,,,,,,,,,,,,,,,,,,,,,,,,TEST,001,2023-04-28_13h07.34.427,PGNGS_RST_750_english,2022.2.5,60.023361088339854,
L_h.bmp,None,L_p.bmp,None,L_q.bmp,None,L_d.bmp,None,0.75,0.75,0,99,99,99,,,,,,,,,,,,,,,,,,,,,,,,,,332.3475250999909,332.3475250999909,None,1,,,,,,,,,,,,,,,,,,,,,,,,,,,,,,,,,,,,,,,,,,,,,,,,,,,,,,,,TEST,001,2023-04-28_13h07.34.427,PGNGS_RST_750_english,2022.2.5,60.023361088339854,
L_w.bmp,None,L_s.bmp,n,L_w.bmp,None,L_r.bmp,n,0.75,0.75,0,100,100,100,,,,,,,,,,,,,,,,,,,,,,,,,,333.096764899994,333.096764899994,None,1,,,,,,,,,,,,,,,,,,,,,,,,,,,,,,,,,,,,,,,,,,,,,,,,,,,,,,,,TEST,001,2023-04-28_13h07.34.427,PGNGS_RST_750_english,2022.2.5,60.023361088339854,
L_g.bmp,None,L_f.bmp,None,L_j.bmp,None,L_m.bmp,None,0.75,0.75,0,101,101,101,,,,,,,,,,,,,,,,,,,,,,,,,,333.84681190000265,333.84681190000265,None,1,,,,,,,,,,,,,,,,,,,,,,,,,,,,,,,,,,,,,,,,,,,,,,,,,,,,,,,,TEST,001,2023-04-28_13h07.34.427,PGNGS_RST_750_english,2022.2.5,60.023361088339854,
L_m.bmp,None,L_w.bmp,None,L_p.bmp,None,L_q.bmp,None,0.75,0.75,0,102,102,102,,,,,,,,,,,,,,,,,,,,,,,,,,334.59624710000935,334.59624710000935,None,1,,,,,,,,,,,,,,,,,,,,,,,,,,,,,,,,,,,,,,,,,,,,,,,,,,,,,,,,TEST,001,2023-04-28_13h07.34.427,PGNGS_RST_750_english,2022.2.5,60.023361088339854,
L_w.bmp,None,L_m.bmp,None,L_g.bmp,None,L_k.bmp,None,0.75,0.75,0,103,103,103,,,,,,,,,,,,,,,,,,,,,,,,,,335.3451245999895,335.3451245999895,None,1,,,,,,,,,,,,,,,,,,,,,,,,,,,,,,,,,,,,,,,,,,,,,,,,,,,,,,,,TEST,001,2023-04-28_13h07.34.427,PGNGS_RST_750_english,2022.2.5,60.023361088339854,
L_h.bmp,None,L_r.bmp,n,L_q.bmp,None,L_t.bmp,n,0.75,0.75,0,104,104,104,,,,,,,,,,,,,,,,,,,,,,,,,,336.0943670000124,336.0943670000124,None,1,,336.8442352999991,336.8442352999991,,,,,,,,,,,,,,,,,,,,,,,,,,,,,,,,,,,,,,,,,,,,,,,,,,,,,TEST,001,2023-04-28_13h07.34.427,PGNGS_RST_750_english,2022.2.5,60.023361088339854,
L_r.bmp,n,L_p.bmp,None,L_w.bmp,None,L_b.bmp,None,0.75,0.75,0,105,105,105,,,,,,,,,,,,,,,,,,,,,,,,,,336.8442352999991,336.8442352999991,n,1,0.4702566000050865,,,,,,,,,,,,,,,,,,,,,,,,,,,,,,,,,,,,,,,,,,,,,,,,,,,,,,,TEST,001,2023-04-28_13h07.34.427,PGNGS_RST_750_english,2022.2.5,60.023361088339854,
L_b.bmp,None,L_d.bmp,None,L_d.bmp,None,L_m.bmp,None,0.75,0.75,0,106,106,106,,,,,,,,,,,,,,,,,,,,,,,,,,337.6100008999929,337.6100008999929,None,1,,,,,,,,,,,,,,,,,,,,,,,,,,,,,,,,,,,,,,,,,,,,,,,,,,,,,,,,TEST,001,2023-04-28_13h07.34.427,PGNGS_RST_750_english,2022.2.5,60.023361088339854,
L_v.bmp,None,L_c.bmp,None,L_f.bmp,None,L_g.bmp,None,0.75,0.75,0,107,107,107,,,,,,,,,,,,,,,,,,,,,,,,,,338.35930290000397,338.35930290000397,None,1,,,,,,,,,,,,,,,,,,,,,,,,,,,,,,,,,,,,,,,,,,,,,,,,,,,,,,,,TEST,001,2023-04-28_13h07.34.427,PGNGS_RST_750_english,2022.2.5,60.023361088339854,
L_h.bmp,None,L_s.bmp,n,L_s.bmp,n,L_t.bmp,None,0.3,0.75,0,108,108,108,,,,,,,,,,,,,,,,,,,,,,,,,,339.10884289999376,339.10884289999376,None,1,,,,,,,,,,,,,,,,,,,,,,,,,,,,,,,,,,,,,,,,,,,,,,,,,,,,,,,,TEST,001,2023-04-28_13h07.34.427,PGNGS_RST_750_english,2022.2.5,60.023361088339854,
L_w.bmp,None,L_q.bmp,None,L_f.bmp,None,L_g.bmp,None,0.45,0.75,0,109,109,109,,,,,,,,,,,,,,,,,,,,,,,,,,339.85864580000634,339.85864580000634,None,1,,,,,,,,,,,,,,,,,,,,,,,,,,,,,,,,,,,,,,,,,,,,,,,,,,,,,,,,TEST,001,2023-04-28_13h07.34.427,PGNGS_RST_750_english,2022.2.5,60.023361088339854,
L_m.bmp,None,L_k.bmp,None,L_n.bmp,None,L_h.bmp,None,0.75,0.75,0,110,110,110,,,,,,,,,,,,,,,,,,,,,,,,,,340.60743370000273,340.60743370000273,None,1,,,,,,,,,,,,,,,,,,,,,,,,,,,,,,,,,,,,,,,,,,,,,,,,,,,,,,,,TEST,001,2023-04-28_13h07.34.427,PGNGS_RST_750_english,2022.2.5,60.023361088339854,
L_j.bmp,None,L_b.bmp,None,L_w.bmp,None,L_g.bmp,None,0.75,0.75,0,111,111,111,,,,,,,,,,,,,,,,,,,,,,,,,,341.35695730001316,341.35695730001316,None,1,,,,,,,,,,,,,,,,,,,,,,,,,,,,,,,,,,,,,,,,,,,,,,,,,,,,,,,,TEST,001,2023-04-28_13h07.34.427,PGNGS_RST_750_english,2022.2.5,60.023361088339854,
L_m.bmp,None,L_r.bmp,n,L_b.bmp,None,L_p.bmp,None,0.75,0.75,0,112,112,112,,,,,,,,,,,,,,,,,,,,,,,,,,342.1068624999898,342.1068624999898,None,1,,,,,,,,,,,,,,,,,,,,,,,,,,,,,,,,,,,,,,,,,,,,,,,,,,,,,,,,TEST,001,2023-04-28_13h07.34.427,PGNGS_RST_750_english,2022.2.5,60.023361088339854,
L_g.bmp,None,L_m.bmp,None,L_s.bmp,n,L_c.bmp,None,0.75,0.75,0,113,113,113,,,,,,,,,,,,,,,,,,,,,,,,,,342.85566239999025,342.85566239999025,None,1,,,,,,,,,,,,,,,,,,,,,,,,,,,,,,,,,,,,,,,,,,,,,,,,,,,,,,,,TEST,001,2023-04-28_13h07.34.427,PGNGS_RST_750_english,2022.2.5,60.023361088339854,
L_k.bmp,None,L_l.bmp,None,L_v.bmp,None,L_r.bmp,n,0.75,0.75,0,114,114,114,,,,,,,,,,,,,,,,,,,,,,,,,,343.6051424999896,343.6051424999896,None,1,,,,,,,,,,,,,,,,,,,,,,,,,,,,,,,,,,,,,,,,,,,,,,,,,,,,,,,,TEST,001,2023-04-28_13h07.34.427,PGNGS_RST_750_english,2022.2.5,60.023361088339854,
L_b.bmp,None,L_h.bmp,None,L_q.bmp,None,L_h.bmp,None,0.75,0.75,0,115,115,115,,,,,,,,,,,,,,,,,,,,,,,,,,344.3542962000065,344.3542962000065,None,1,,,,,,,,,,,,,,,,,,,,,,,,,,,,,,,,,,,,,,,,,,,,,,,,,,,,,,,,TEST,001,2023-04-28_13h07.34.427,PGNGS_RST_750_english,2022.2.5,60.023361088339854,
L_r.bmp,n,L_g.bmp,None,L_d.bmp,None,L_d.bmp,None,0.75,0.75,0,116,116,116,,,,,,,,,,,,,,,,,,,,,,,,,,345.10385929999757,345.10385929999757,n,1,0.4751789000001736,,,,,,,,,,,,,,,,,,,,,,,,,,,,,,,,,,,,,,,,,,,,,,,,,,,,,,,TEST,001,2023-04-28_13h07.34.427,PGNGS_RST_750_english,2022.2.5,60.023361088339854,
L_n.bmp,None,L_r.bmp,None,L_r.bmp,n,L_m.bmp,None,0.75,0.25,0,117,117,117,,,,,,,,,,,,,,,,,,,,,,,,,,345.85327719998895,345.85327719998895,None,1,,,,,,,,,,,,,,,,,,,,,,,,,,,,,,,,,,,,,,,,,,,,,,,,,,,,,,,,TEST,001,2023-04-28_13h07.34.427,PGNGS_RST_750_english,2022.2.5,60.023361088339854,
L_q.bmp,None,L_g.bmp,None,L_v.bmp,None,L_j.bmp,None,0.75,0.5,0,118,118,118,,,,,,,,,,,,,,,,,,,,,,,,,,346.6024663000135,346.6024663000135,None,1,,,,,,,,,,,,,,,,,,,,,,,,,,,,,,,,,,,,,,,,,,,,,,,,,,,,,,,,TEST,001,2023-04-28_13h07.34.427,PGNGS_RST_750_english,2022.2.5,60.023361088339854,
L_f.bmp,None,L_p.bmp,None,L_c.bmp,None,L_p.bmp,None,0.75,0.75,0,119,119,119,,,,,,,,,,,,,,,,,,,,,,,,,,347.3521110000147,347.3521110000147,None,1,,,,,,,,,,,,,,,,,,,,,,,,,,,,,,,,,,,,,,,,,,,,,,,,,,,,,,,,TEST,001,2023-04-28_13h07.34.427,PGNGS_RST_750_english,2022.2.5,60.023361088339854,
L_r.bmp,n,L_c.bmp,None,L_j.bmp,None,L_b.bmp,None,0.75,0.75,0,120,120,120,,,,,,,,,,,,,,,,,,,,,,,,,,348.10126560000936,348.10126560000936,n,1,0.4987326000118628,,,,,,,,,,,,,,,,,,,,,,,,,,,,,,,,,,,,,,,,,,,,,,,,,,,,,,,TEST,001,2023-04-28_13h07.34.427,PGNGS_RST_750_english,2022.2.5,60.023361088339854,
L_p.bmp,None,L_s.bmp,n,L_k.bmp,None,L_s.bmp,n,0.25,0.75,0,121,121,121,,,,,,,,,,,,,,,,,,,,,,,,,,348.8505473000114,348.8505473000114,None,1,,,,,,,,,,,,,,,,,,,,,,,,,,,,,,,,,,,,,,,,,,,,,,,,,,,,,,,,TEST,001,2023-04-28_13h07.34.427,PGNGS_RST_750_english,2022.2.5,60.023361088339854,
L_k.bmp,None,L_g.bmp,None,L_w.bmp,None,L_b.bmp,None,0.5,0.75,0,122,122,122,,,,,,,,,,,,,,,,,,,,,,,,,,349.60002479999093,349.60002479999093,None,1,,,,,,,,,,,,,,,,,,,,,,,,,,,,,,,,,,,,,,,,,,,,,,,,,,,,,,,,TEST,001,2023-04-28_13h07.34.427,PGNGS_RST_750_english,2022.2.5,60.023361088339854,
L_s.bmp,n,L_h.bmp,None,L_t.bmp,n,L_f.bmp,None,0.75,0.75,0,123,123,123,,,,,,,,,,,,,,,,,,,,,,,,,,350.3495316999906,350.3495316999906,n,1,0.4630518000049051,,,,,,,,,,,,,,,,,,,,,,,,,,,,,,,,,,,,,,,,,,,,,,,,,,,,,,,TEST,001,2023-04-28_13h07.34.427,PGNGS_RST_750_english,2022.2.5,60.023361088339854,
L_f.bmp,None,L_m.bmp,None,L_f.bmp,None,L_r.bmp,n,0.75,0.75,0,124,124,124,,,,,,,,,,,,,,,,,,,,,,,,,,351.09876630001236,351.09876630001236,None,1,,,,,,,,,,,,,,,,,,,,,,,,,,,,,,,,,,,,,,,,,,,,,,,,,,,,,,,,TEST,001,2023-04-28_13h07.34.427,PGNGS_RST_750_english,2022.2.5,60.023361088339854,
L_g.bmp,None,L_j.bmp,None,L_m.bmp,None,L_w.bmp,None,0.75,0.75,0,125,125,125,,,,,,,,,,,,,,,,,,,,,,,,,,351.8490470999968,351.8490470999968,None,1,,,,,,,,,,,,,,,,,,,,,,,,,,,,,,,,,,,,,,,,,,,,,,,,,,,,,,,,TEST,001,2023-04-28_13h07.34.427,PGNGS_RST_750_english,2022.2.5,60.023361088339854,
L_k.bmp,None,L_p.bmp,None,L_g.bmp,None,L_h.bmp,None,0.75,0.75,0,126,126,126,,,,,,,,,,,,,,,,,,,,,,,,,,352.59814280000865,352.59814280000865,None,1,,,,,,,,,,,,,,,,,,,,,,,,,,,,,,,,,,,,,,,,,,,,,,,,,,,,,,,,TEST,001,2023-04-28_13h07.34.427,PGNGS_RST_750_english,2022.2.5,60.023361088339854,
L_w.bmp,None,L_b.bmp,None,L_l.bmp,None,L_k.bmp,None,0.75,0.75,0,127,127,127,,,,,,,,,,,,,,,,,,,,,,,,,,353.34710300000734,353.34710300000734,None,1,,,,,,,,,,,,,,,,,,,,,,,,,,,,,,,,,,,,,,,,,,,,,,,,,,,,,,,,TEST,001,2023-04-28_13h07.34.427,PGNGS_RST_750_english,2022.2.5,60.023361088339854,
L_j.bmp,None,L_s.bmp,None,L_w.bmp,None,L_r.bmp,None,0.75,0.75,0,128,128,128,,,,,,,,,,,,,,,,,,,,,,,,,,354.0965623999946,354.0965623999946,None,1,,,,,,,,,,,,,,,,,,,,,,,,,,,,,,,,,,,,,,,,,,,,,,,,,,,,,,,,TEST,001,2023-04-28_13h07.34.427,PGNGS_RST_750_english,2022.2.5,60.023361088339854,
L_p.bmp,None,L_g.bmp,None,L_h.bmp,None,L_q.bmp,None,0.75,0.75,0,129,129,129,,,,,,,,,,,,,,,,,,,,,,,,,,354.8458595999982,354.8458595999982,None,1,,,,,,,,,,,,,,,,,,,,,,,,,,,,,,,,,,,,,,,,,,,,,,,,,,,,,,,,TEST,001,2023-04-28_13h07.34.427,PGNGS_RST_750_english,2022.2.5,60.023361088339854,
L_g.bmp,None,L_b.bmp,None,L_w.bmp,None,L_d.bmp,None,0.75,0.75,0,130,130,130,,,,,,,,,,,,,,,,,,,,,,,,,,355.59533589999774,355.59533589999774,None,1,,,,,,,,,,,,,,,,,,,,,,,,,,,,,,,,,,,,,,,,,,,,,,,,,,,,,,,,TEST,001,2023-04-28_13h07.34.427,PGNGS_RST_750_english,2022.2.5,60.023361088339854,
L_q.bmp,None,L_w.bmp,None,L_g.bmp,None,L_l.bmp,None,0.75,0.75,0,131,131,131,,,,,,,,,,,,,,,,,,,,,,,,,,356.34458060000907,356.34458060000907,None,1,,,,,,,,,,,,,,,,,,,,,,,,,,,,,,,,,,,,,,,,,,,,,,,,,,,,,,,,TEST,001,2023-04-28_13h07.34.427,PGNGS_RST_750_english,2022.2.5,60.023361088339854,
L_w.bmp,None,L_r.bmp,n,L_m.bmp,None,L_j.bmp,None,0.75,0.75,0,132,132,132,,,,,,,,,,,,,,,,,,,,,,,,,,357.0939745999931,357.0939745999931,None,1,,357.8438494000002,357.8438494000002,,,,,,,,,,,,,,,,,,,,,,,,,,,,,,,,,,,,,,,,,,,,,,,,,,,,,TEST,001,2023-04-28_13h07.34.427,PGNGS_RST_750_english,2022.2.5,60.023361088339854,
L_d.bmp,None,L_b.bmp,None,L_w.bmp,None,L_f.bmp,None,0.75,0.75,0,133,133,133,,,,,,,,,,,,,,,,,,,,,,,,,,357.8438494000002,357.8438494000002,None,1,,,,,,,,,,,,,,,,,,,,,,,,,,,,,,,,,,,,,,,,,,,,,,,,,,,,,,,,TEST,001,2023-04-28_13h07.34.427,PGNGS_RST_750_english,2022.2.5,60.023361088339854,
L_f.bmp,None,L_k.bmp,None,L_h.bmp,None,L_s.bmp,n,0.75,0.75,0,134,134,134,,,,,,,,,,,,,,,,,,,,,,,,,,358.6097594999883,358.6097594999883,None,1,,,,,,,,,,,,,,,,,,,,,,,,,,,,,,,,,,,,,,,,,,,,,,,,,,,,,,,,TEST,001,2023-04-28_13h07.34.427,PGNGS_RST_750_english,2022.2.5,60.023361088339854,
L_s.bmp,n,L_g.bmp,None,L_r.bmp,n,L_b.bmp,None,0.75,0.75,0,135,135,135,,,,,,,,,,,,,,,,,,,,,,,,,,359.3588691999903,359.3588691999903,n,1,0.5309304000111297,,,,,,,,,,,,,,,,,,,,,,,,,,,,,,,,,,,,,,,,,,,,,,,,,,,,,,,TEST,001,2023-04-28_13h07.34.427,PGNGS_RST_750_english,2022.2.5,60.023361088339854,
L_j.bmp,None,L_s.bmp,n,L_j.bmp,None,L_p.bmp,None,0.75,0.75,0,136,136,136,,,,,,,,,,,,,,,,,,,,,,,,,,360.10818939999444,360.10818939999444,None,1,,,,,,,,,,,,,,,,,,,,,,,,,,,,,,,,,,,,,,,,,,,,,,,,,,,,,,,,TEST,001,2023-04-28_13h07.34.427,PGNGS_RST_750_english,2022.2.5,60.023361088339854,
L_k.bmp,None,L_g.bmp,None,L_k.bmp,None,L_w.bmp,None,0.75,0.75,0,137,137,137,,,,,,,,,,,,,,,,,,,,,,,,,,360.85761400000774,360.85761400000774,None,1,,,,,,,,,,,,,,,,,,,,,,,,,,,,,,,,,,,,,,,,,,,,,,,,,,,,,,,,TEST,001,2023-04-28_13h07.34.427,PGNGS_RST_750_english,2022.2.5,60.023361088339854,
L_r.bmp,n,L_b.bmp,None,L_r.bmp,n,L_f.bmp,None,0.75,0.25,0,138,138,138,,,,,,,,,,,,,,,,,,,,,,,,,,361.612420999998,361.612420999998,n,1,0.6912906999932602,,,,,,,,,,,,,,,,,,,,,,,,,,,,,,,,,,,,,,,,,,,,,,,,,,,,,,,TEST,001,2023-04-28_13h07.34.427,PGNGS_RST_750_english,2022.2.5,60.023361088339854,
L_k.bmp,None,L_r.bmp,n,L_k.bmp,None,L_k.bmp,None,0.75,0.5,0,139,139,139,,,,,,,,,,,,,,,,,,,,,,,,,,362.3563390999916,362.3563390999916,None,1,,,,,,,,,,,,,,,,,,,,,,,,,,,,,,,,,,,,,,,,,,,,,,,,,,,,,,,,TEST,001,2023-04-28_13h07.34.427,PGNGS_RST_750_english,2022.2.5,60.023361088339854,
L_f.bmp,None,L_j.bmp,None,L_f.bmp,None,L_p.bmp,None,0.75,0.75,0,140,140,140,,,,,,,,,,,,,,,,,,,,,,,,,,363.10581790001015,363.10581790001015,None,1,,,,,,,,,,,,,,,,,,,,,,,,,,,,,,,,,,,,,,,,,,,,,,,,,,,,,,,,TEST,001,2023-04-28_13h07.34.427,PGNGS_RST_750_english,2022.2.5,60.023361088339854,
L_l.bmp,None,L_b.bmp,None,L_l.bmp,None,L_t.bmp,n,0.75,0.75,0,141,141,141,,,,,,,,,,,,,,,,,,,,,,,,,,363.855801800004,363.855801800004,None,1,,,,,,,,,,,,,,,,,,,,,,,,,,,,,,,,,,,,,,,,,,,,,,,,,,,,,,,,TEST,001,2023-04-28_13h07.34.427,PGNGS_RST_750_english,2022.2.5,60.023361088339854,
L_s.bmp,n,L_s.bmp,n,L_t.bmp,n,L_l.bmp,None,0.75,0.75,0,142,142,142,,,,,,,,,,,,,,,,,,,,,,,,,,364.60496820000117,364.60496820000117,n,1,0.39872640001703985,,,,,,,,,,,,,,,,,,,,,,,,,,,,,,,,,,,,,,,,,,,,,,,,,,,,,,,TEST,001,2023-04-28_13h07.34.427,PGNGS_RST_750_english,2022.2.5,60.023361088339854,
L_n.bmp,None,L_n.bmp,None,L_n.bmp,None,L_b.bmp,None,0.75,0.75,0,143,143,143,,,,,,,,,,,,,,,,,,,,,,,,,,365.3555669999914,365.3555669999914,None,1,,,,,,,,,,,,,,,,,,,,,,,,,,,,,,,,,,,,,,,,,,,,,,,,,,,,,,,,TEST,001,2023-04-28_13h07.34.427,PGNGS_RST_750_english,2022.2.5,60.023361088339854,
L_d.bmp,None,L_j.bmp,None,L_d.bmp,None,L_h.bmp,None,0.75,0.75,0,144,144,144,,,,,,,,,,,,,,,,,,,,,,,,,,366.1031288999948,366.1031288999948,None,1,,,,,,,,,,,,,,,,,,,,,,,,,,,,,,,,,,,,,,,,,,,,,,,,,,,,,,,,TEST,001,2023-04-28_13h07.34.427,PGNGS_RST_750_english,2022.2.5,60.023361088339854,
L_s.bmp,n,L_h.bmp,None,L_s.bmp,n,L_c.bmp,None,0.75,0.75,0,145,145,145,,,,,,,,,,,,,,,,,,,,,,,,,,366.8530494000006,366.8530494000006,n,1,0.481927100016037,,,,,,,,,,,,,,,,,,,,,,,,,,,,,,,,,,,,,,,,,,,,,,,,,,,,,,,TEST,001,2023-04-28_13h07.34.427,PGNGS_RST_750_english,2022.2.5,60.023361088339854,
L_v.bmp,None,L_m.bmp,None,L_v.bmp,None,L_m.bmp,None,0.75,0.75,0,146,146,146,,,,,,,,,,,,,,,,,,,,,,,,,,367.60195119999116,367.60195119999116,None,1,,,,,,,,,,,,,,,,,,,,,,,,,,,,,,,,,,,,,,,,,,,,,,,,,,,,,,,,TEST,001,2023-04-28_13h07.34.427,PGNGS_RST_750_english,2022.2.5,60.023361088339854,
L_f.bmp,None,L_q.bmp,None,L_f.bmp,None,L_j.bmp,None,0.75,0.75,0,147,147,147,,,,,,,,,,,,,,,,,,,,,,,,,,368.35116190000554,368.35116190000554,None,1,,,,,,,,,,,,,,,,,,,,,,,,,,,,,,,,,,,,,,,,,,,,,,,,,,,,,,,,TEST,001,2023-04-28_13h07.34.427,PGNGS_RST_750_english,2022.2.5,60.023361088339854,
L_w.bmp,None,L_b.bmp,None,L_w.bmp,None,L_p.bmp,None,0.75,0.75,0,148,148,148,,,,,,,,,,,,,,,,,,,,,,,,,,369.10106019998784,369.10106019998784,None,1,,,,,,,,,,,,,,,,,,,,,,,,,,,,,,,,,,,,,,,,,,,,,,,,,,,,,,,,TEST,001,2023-04-28_13h07.34.427,PGNGS_RST_750_english,2022.2.5,60.023361088339854,
L_q.bmp,None,L_g.bmp,None,L_q.bmp,None,L_b.bmp,None,0.25,0.75,0,149,149,149,,,,,,,,,,,,,,,,,,,,,,,,,,369.85011820000364,369.85011820000364,None,1,,,,,,,,,,,,,,,,,,,,,,,,,,,,,,,,,,,,,,,,,,,,,,,,,,,,,,,,TEST,001,2023-04-28_13h07.34.427,PGNGS_RST_750_english,2022.2.5,60.023361088339854,
L_k.bmp,None,L_r.bmp,n,L_k.bmp,None,L_f.bmp,None,0.5,0.75,0,150,150,150,,,,,,,,,,,,,,,,,,,,,,,,,,370.59943309999653,370.59943309999653,None,1,,,,,,,,,,,,,,,,,,,,,,,,,,,,,,,,,,,,,,,,,,,,,,,,,,,,,,,,TEST,001,2023-04-28_13h07.34.427,PGNGS_RST_750_english,2022.2.5,60.023361088339854,
L_b.bmp,None,L_j.bmp,None,L_b.bmp,None,L_l.bmp,None,0.75,0.75,0,151,151,151,,,,,,,,,,,,,,,,,,,,,,,,,,371.34922140001436,371.34922140001436,None,1,,,,,,,,,,,,,,,,,,,,,,,,,,,,,,,,,,,,,,,,,,,,,,,,,,,,,,,,TEST,001,2023-04-28_13h07.34.427,PGNGS_RST_750_english,2022.2.5,60.023361088339854,
L_f.bmp,None,L_f.bmp,None,L_j.bmp,None,L_v.bmp,None,0.75,0.75,0,152,152,152,,,,,,,,,,,,,,,,,,,,,,,,,,372.0985470000014,372.0985470000014,None,1,,,,,,,,,,,,,,,,,,,,,,,,,,,,,,,,,,,,,,,,,,,,,,,,,,,,,,,,TEST,001,2023-04-28_13h07.34.427,PGNGS_RST_750_english,2022.2.5,60.023361088339854,
L_j.bmp,None,L_v.bmp,None,L_c.bmp,None,L_j.bmp,None,0.75,0.75,0,153,153,153,,,,,,,,,,,,,,,,,,,,,,,,,,372.8481260999979,372.8481260999979,None,1,,,,,,,,,,,,,,,,,,,,,,,,,,,,,,,,,,,,,,,,,,,,,,,,,,,,,,,,TEST,001,2023-04-28_13h07.34.427,PGNGS_RST_750_english,2022.2.5,60.023361088339854,
L_s.bmp,n,L_f.bmp,None,L_s.bmp,n,L_t.bmp,None,0.75,0.75,0,154,154,154,,,,,,,,,,,,,,,,,,,,,,,,,,373.5973673000117,373.5973673000117,n,1,0.40019610000308603,,,,,,,,,,,,,,,,,,,,,,,,,,,,,,,,,,,,,,,,,,,,,,,,,,,,,,,TEST,001,2023-04-28_13h07.34.427,PGNGS_RST_750_english,2022.2.5,60.023361088339854,
L_b.bmp,None,L_g.bmp,None,L_b.bmp,None,L_m.bmp,None,0.75,0.75,0,155,155,155,,,,,,,,,,,,,,,,,,,,,,,,,,374.3464684000064,374.3464684000064,None,1,,,,,,,,,,,,,,,,,,,,,,,,,,,,,,,,,,,,,,,,,,,,,,,,,,,,,,,,TEST,001,2023-04-28_13h07.34.427,PGNGS_RST_750_english,2022.2.5,60.023361088339854,
L_q.bmp,None,L_h.bmp,None,L_q.bmp,None,L_k.bmp,None,0.75,0.75,0,156,156,156,,,,,,,,,,,,,,,,,,,,,,,,,,375.0959043999901,375.0959043999901,None,1,,,,,,,,,,,,,,,,,,,,,,,,,,,,,,,,,,,,,,,,,,,,,,,,,,,,,,,,TEST,001,2023-04-28_13h07.34.427,PGNGS_RST_750_english,2022.2.5,60.023361088339854,
L_m.bmp,None,L_b.bmp,None,L_m.bmp,None,L_b.bmp,None,0.75,0.75,0,157,157,157,,,,,,,,,,,,,,,,,,,,,,,,,,375.84544249999453,375.84544249999453,None,1,,,,,,,,,,,,,,,,,,,,,,,,,,,,,,,,,,,,,,,,,,,,,,,,,,,,,,,,TEST,001,2023-04-28_13h07.34.427,PGNGS_RST_750_english,2022.2.5,60.023361088339854,
L_q.bmp,None,L_v.bmp,None,L_q.bmp,None,L_s.bmp,n,0.75,0.75,0,158,158,158,,,,,,,,,,,,,,,,,,,,,,,,,,376.5946568000072,376.5946568000072,None,1,,,,,,,,,,,,,,,,,,,,,,,,,,,,,,,,,,,,,,,,,,,,,,,,,,,,,,,,TEST,001,2023-04-28_13h07.34.427,PGNGS_RST_750_english,2022.2.5,60.023361088339854,
L_f.bmp,None,L_c.bmp,None,L_f.bmp,None,L_b.bmp,None,0.75,0.75,0,159,159,159,,,,,,,,,,,,,,,,,,,,,,,,,,377.3441550999996,377.3441550999996,None,1,,378.0933742999914,378.0933742999914,,,,,,,,,,,,,,,,,,,,,,,,,,,,,,,,,,,,,,,,,,,,,,,,,,,,,TEST,001,2023-04-28_13h07.34.427,PGNGS_RST_750_english,2022.2.5,60.023361088339854,
L_j.bmp,None,L_l.bmp,None,L_j.bmp,None,L_d.bmp,None,0.75,0.3,0,160,160,160,,,,,,,,,,,,,,,,,,,,,,,,,,378.0933742999914,378.0933742999914,None,1,,378.84276020000107,378.84276020000107,,,,,,,,,,,,,,,,,,,,,,,,,,,,,,,,,,,,,,,,,,,,,,,,,,,,,TEST,001,2023-04-28_13h07.34.427,PGNGS_RST_750_english,2022.2.5,60.023361088339854,
L_m.bmp,None,L_m.bmp,None,L_m.bmp,None,L_v.bmp,None,0.3,0.45,0,161,161,161,,,,,,,,,,,,,,,,,,,,,,,,,,378.84276020000107,378.84276020000107,None,1,,379.59269009999116,379.59269009999116,,,,,,,,,,,,,,,,,,,,,,,,,,,,,,,,,,,,,,,,,,,,,,,,,,,,,TEST,001,2023-04-28_13h07.34.427,PGNGS_RST_750_english,2022.2.5,60.023361088339854,
L_b.bmp,None,L_n.bmp,None,L_b.bmp,None,L_b.bmp,None,0.45,0.75,0,162,162,162,,,,,,,,,,,,,,,,,,,,,,,,,,379.59269009999116,379.59269009999116,None,1,,380.3415884000133,380.3415884000133,,,,,,,,,,,,,,,,,,,,,,,,,,,,,,,,,,,,,,,,,,,,,,,,,,,,,TEST,001,2023-04-28_13h07.34.427,PGNGS_RST_750_english,2022.2.5,60.023361088339854,
L_w.bmp,None,L_p.bmp,None,L_m.bmp,None,L_n.bmp,None,0.75,0.75,0,163,163,163,,,,,,,,,,,,,,,,,,,,,,,,,,380.3415884000133,380.3415884000133,None,1,,381.09166919998825,381.09166919998825,,,,,,,,,,,,,,,,,,,,,,,,,,,,,,,,,,,,,,,,,,,,,,,,,,,,,TEST,001,2023-04-28_13h07.34.427,PGNGS_RST_750_english,2022.2.5,60.023361088339854,
L_m.bmp,None,L_v.bmp,None,L_b.bmp,None,L_c.bmp,None,0.75,0.75,0,164,164,164,,,,,,,,,,,,,,,,,,,,,,,,,,381.09166919998825,381.09166919998825,None,1,,,,,,,,,,,,,,,,,,,,,,,,,,,,,,,,,,,,,,,,,,,,,,,,,,,,,,,,TEST,001,2023-04-28_13h07.34.427,PGNGS_RST_750_english,2022.2.5,60.023361088339854,
L_n.bmp,None,L_p.bmp,None,L_n.bmp,None,L_p.bmp,None,0.75,0.75,0,165,165,165,,,,,,,,,,,,,,,,,,,,,,,,,,381.85739379998995,381.85739379998995,None,1,,,,,,,,,,,,,,,,,,,,,,,,,,,,,,,,,,,,,,,,,,,,,,,,,,,,,,,,TEST,001,2023-04-28_13h07.34.427,PGNGS_RST_750_english,2022.2.5,60.023361088339854,
L_f.bmp,None,L_r.bmp,None,L_f.bmp,None,L_f.bmp,None,0.75,0.75,0,166,166,166,,,,,,,,,,,,,,,,,,,,,,,,,,382.60639299999457,382.60639299999457,None,1,,,,,,,,,,,,,,,,,,,,,,,,,,,,,,,,,,,,,,,,,,,,,,,,,,,,,,,,TEST,001,2023-04-28_13h07.34.427,PGNGS_RST_750_english,2022.2.5,60.023361088339854,
L_m.bmp,None,L_l.bmp,None,L_m.bmp,None,L_p.bmp,None,0.75,0.75,0,167,167,167,,,,,,,,,,,,,,,,,,,,,,,,,,383.3569783999992,383.3569783999992,None,1,,,,,,,,,,,,,,,,,,,,,,,,,,,,,,,,,,,,,,,,,,,,,,,,,,,,,,,,TEST,001,2023-04-28_13h07.34.427,PGNGS_RST_750_english,2022.2.5,60.023361088339854,
L_b.bmp,None,L_n.bmp,None,L_m.bmp,None,L_v.bmp,None,0.75,0.75,,,,,0,0,0,0,,,,,,,,,,,,,,,,,,,,,446.5697516000073,,,,,,,,384.1047805999988,384.1047805999988,385.4371822999965,395.44496459999937,395.5284884000139,405.5366963999986,405.6370416000136,415.6451824000105,415.7285597999871,427.73523670001305,427.8353047000128,427.8353047000128,447.6671188999899,447.6671188999899,447.6671188999899,None,1,,,,,,,,,,,,,,,,,,,,,,,,,,,,,,,,,,,,TEST,001,2023-04-28_13h07.34.427,PGNGS_RST_750_english,2022.2.5,60.023361088339854,
L_k.bmp,None,L_q.bmp,None,L_b.bmp,None,L_c.bmp,None,0.75,0.75,,,,,0,1,1,1,,,,,,,,,,,,,,,,,,,,,,,,,,,,,,,,,,,,,,,,,,448.33567060000496,448.33567060000496,None,1,,,,,,,,,,,,,,,,,,,,,,,,,,,,,,,,,,,,TEST,001,2023-04-28_13h07.34.427,PGNGS_RST_750_english,2022.2.5,60.023361088339854,
L_s.bmp,n,L_f.bmp,None,L_s.bmp,n,L_j.bmp,None,0.75,0.75,,,,,0,2,2,2,,,,,,,,,,,,,,,,,,,,,,,,,,,,,,,,,,,,,,,,,,449.084675399994,449.084675399994,None,1,,,,,,,,,,,,,,,,,,,,,,,,,,,,,,,,,,,,TEST,001,2023-04-28_13h07.34.427,PGNGS_RST_750_english,2022.2.5,60.023361088339854,
L_g.bmp,None,L_r.bmp,n,L_b.bmp,None,L_k.bmp,None,0.75,0.75,,,,,0,3,3,3,,,,,,,,,,,,,,,,,,,,,,,,,,,,,,,,,,,,,,,,,,449.8343693999923,449.8343693999923,n,1,0.5643199000041932,,,,,,,,,,,,,,,,,,,,,,,,,,,,,,,,,,,TEST,001,2023-04-28_13h07.34.427,PGNGS_RST_750_english,2022.2.5,60.023361088339854,
L_j.bmp,None,L_p.bmp,None,L_d.bmp,None,L_w.bmp,None,0.75,0.75,,,,,0,4,4,4,,,,,,,,,,,,,,,,,,,,,,,,,,,,,,,,,,,,,,,,,,450.5838716000144,450.5838716000144,None,1,,,,,,,,,,,,,,,,,,,,,,,,,,,,,,,,,,,,TEST,001,2023-04-28_13h07.34.427,PGNGS_RST_750_english,2022.2.5,60.023361088339854,
L_b.bmp,None,L_k.bmp,None,L_v.bmp,None,L_t.bmp,n,0.75,0.75,,,,,0,5,5,5,,,,,,,,,,,,,,,,,,,,,,,,,,,,,,,,,,,,,,,,,,451.3334027999954,451.3334027999954,None,1,,,,,,,,,,,,,,,,,,,,,,,,,,,,,,,,,,,,TEST,001,2023-04-28_13h07.34.427,PGNGS_RST_750_english,2022.2.5,60.023361088339854,
L_r.bmp,n,L_m.bmp,None,L_b.bmp,None,L_f.bmp,None,0.75,0.75,,,,,0,6,6,6,,,,,,,,,,,,,,,,,,,,,,,,,,,,,,,,,,,,,,,,,,452.08249550001347,452.08249550001347,None,1,,,,,,,,,,,,,,,,,,,,,,,,,,,,,,,,,,,,TEST,001,2023-04-28_13h07.34.427,PGNGS_RST_750_english,2022.2.5,60.023361088339854,
L_j.bmp,None,L_f.bmp,None,L_n.bmp,None,L_m.bmp,None,0.75,0.75,,,,,0,7,7,7,,,,,,,,,,,,,,,,,,,,,,,,,,,,,,,,,,,,,,,,,,452.83226659998763,452.83226659998763,None,1,,,,,,,,,,,,,,,,,,,,,,,,,,,,,,,,,,,,TEST,001,2023-04-28_13h07.34.427,PGNGS_RST_750_english,2022.2.5,60.023361088339854,
L_b.bmp,None,L_k.bmp,None,L_c.bmp,None,L_g.bmp,None,0.75,0.75,,,,,0,8,8,8,,,,,,,,,,,,,,,,,,,,,,,,,,,,,,,,,,,,,,,,,,453.5817914000072,453.5817914000072,None,1,,,,,,,,,,,,,,,,,,,,,,,,,,,,,,,,,,,,TEST,001,2023-04-28_13h07.34.427,PGNGS_RST_750_english,2022.2.5,60.023361088339854,
L_n.bmp,None,L_s.bmp,n,L_p.bmp,None,L_l.bmp,None,0.75,0.75,,,,,0,9,9,9,,,,,,,,,,,,,,,,,,,,,,,,,,,,,,,,,,,,,,,,,,454.3307436000032,454.3307436000032,n,1,0.40045429999008775,,,,,,,,,,,,,,,,,,,,,,,,,,,,,,,,,,,TEST,001,2023-04-28_13h07.34.427,PGNGS_RST_750_english,2022.2.5,60.023361088339854,
L_l.bmp,None,L_w.bmp,None,L_f.bmp,None,L_w.bmp,None,0.75,0.75,,,,,0,10,10,10,,,,,,,,,,,,,,,,,,,,,,,,,,,,,,,,,,,,,,,,,,455.07993489998626,455.07993489998626,None,1,,,,,,,,,,,,,,,,,,,,,,,,,,,,,,,,,,,,TEST,001,2023-04-28_13h07.34.427,PGNGS_RST_750_english,2022.2.5,60.023361088339854,
L_j.bmp,None,L_j.bmp,None,L_p.bmp,None,L_h.bmp,None,0.75,0.75,,,,,0,11,11,11,,,,,,,,,,,,,,,,,,,,,,,,,,,,,,,,,,,,,,,,,,455.8353844000085,455.8353844000085,None,1,,,,,,,,,,,,,,,,,,,,,,,,,,,,,,,,,,,,TEST,001,2023-04-28_13h07.34.427,PGNGS_RST_750_english,2022.2.5,60.023361088339854,
L_h.bmp,None,L_p.bmp,None,L_t.bmp,n,L_w.bmp,None,0.75,0.25,,,,,0,12,12,12,,,,,,,,,,,,,,,,,,,,,,,,,,,,,,,,,,,,,,,,,,456.5785981999943,456.5785981999943,None,1,,,,,,,,,,,,,,,,,,,,,,,,,,,,,,,,,,,,TEST,001,2023-04-28_13h07.34.427,PGNGS_RST_750_english,2022.2.5,60.023361088339854,
L_r.bmp,n,L_g.bmp,None,L_q.bmp,None,L_g.bmp,None,0.75,0.5,,,,,0,13,13,13,,,,,,,,,,,,,,,,,,,,,,,,,,,,,,,,,,,,,,,,,,457.3282318999991,457.3282318999991,None,1,,,,,,,,,,,,,,,,,,,,,,,,,,,,,,,,,,,,TEST,001,2023-04-28_13h07.34.427,PGNGS_RST_750_english,2022.2.5,60.023361088339854,
L_q.bmp,None,L_q.bmp,None,L_p.bmp,None,L_m.bmp,None,0.75,0.75,,,,,0,14,14,14,,,,,,,,,,,,,,,,,,,,,,,,,,,,,,,,,,,,,,,,,,458.07769070001086,458.07769070001086,None,1,,,,,,,,,,,,,,,,,,,,,,,,,,,,,,,,,,,,TEST,001,2023-04-28_13h07.34.427,PGNGS_RST_750_english,2022.2.5,60.023361088339854,
L_b.bmp,None,L_w.bmp,None,L_m.bmp,None,L_w.bmp,None,0.75,0.75,,,,,0,15,15,15,,,,,,,,,,,,,,,,,,,,,,,,,,,,,,,,,,,,,,,,,,458.8270831000118,458.8270831000118,None,1,,,,,,,,,,,,,,,,,,,,,,,,,,,,,,,,,,,,TEST,001,2023-04-28_13h07.34.427,PGNGS_RST_750_english,2022.2.5,60.023361088339854,
L_g.bmp,None,L_s.bmp,None,L_s.bmp,n,L_h.bmp,None,0.25,0.75,,,,,0,16,16,16,,,,,,,,,,,,,,,,,,,,,,,,,,,,,,,,,,,,,,,,,,459.5765388,459.5765388,n,0,0.44636209998861887,,,,,,,,,,,,,,,,,,,,,,,,,,,,,,,,,,,TEST,001,2023-04-28_13h07.34.427,PGNGS_RST_750_english,2022.2.5,60.023361088339854,
L_r.bmp,n,L_f.bmp,None,L_h.bmp,None,L_r.bmp,n,0.5,0.75,,,,,0,17,17,17,,,,,,,,,,,,,,,,,,,,,,,,,,,,,,,,,,,,,,,,,,460.32571740000276,460.32571740000276,None,1,,,,,,,,,,,,,,,,,,,,,,,,,,,,,,,,,,,,TEST,001,2023-04-28_13h07.34.427,PGNGS_RST_750_english,2022.2.5,60.023361088339854,
L_f.bmp,None,L_m.bmp,None,L_b.bmp,None,L_j.bmp,None,0.75,0.75,,,,,0,18,18,18,,,,,,,,,,,,,,,,,,,,,,,,,,,,,,,,,,,,,,,,,,461.07759239998995,461.07759239998995,None,1,,,,,,,,,,,,,,,,,,,,,,,,,,,,,,,,,,,,TEST,001,2023-04-28_13h07.34.427,PGNGS_RST_750_english,2022.2.5,60.023361088339854,
L_g.bmp,None,L_j.bmp,None,L_m.bmp,None,L_k.bmp,None,0.75,0.75,,,,,0,19,19,19,,,,,,,,,,,,,,,,,,,,,,,,,,,,,,,,,,,,,,,,,,461.8246720999887,461.8246720999887,None,1,,,,,,,,,,,,,,,,,,,,,,,,,,,,,,,,,,,,TEST,001,2023-04-28_13h07.34.427,PGNGS_RST_750_english,2022.2.5,60.023361088339854,
L_v.bmp,None,L_k.bmp,None,L_s.bmp,n,L_r.bmp,None,0.75,0.75,,,,,0,20,20,20,,,,,,,,,,,,,,,,,,,,,,,,,,,,,,,,,,,,,,,,,,462.57380980000016,462.57380980000016,None,1,,,,,,,,,,,,,,,,,,,,,,,,,,,,,,,,,,,,TEST,001,2023-04-28_13h07.34.427,PGNGS_RST_750_english,2022.2.5,60.023361088339854,
L_f.bmp,None,L_r.bmp,n,L_q.bmp,None,L_k.bmp,None,0.75,0.75,,,,,0,21,21,21,,,,,,,,,,,,,,,,,,,,,,,,,,,,,,,,,,,,,,,,,,463.3232341000112,463.3232341000112,n,1,0.5739701999991667,,,,,,,,,,,,,,,,,,,,,,,,,,,,,,,,,,,TEST,001,2023-04-28_13h07.34.427,PGNGS_RST_750_english,2022.2.5,60.023361088339854,
L_g.bmp,None,L_k.bmp,None,L_v.bmp,None,L_f.bmp,None,0.75,0.75,,,,,0,22,22,22,,,,,,,,,,,,,,,,,,,,,,,,,,,,,,,,,,,,,,,,,,464.0726136000012,464.0726136000012,None,1,,,,,,,,,,,,,,,,,,,,,,,,,,,,,,,,,,,,TEST,001,2023-04-28_13h07.34.427,PGNGS_RST_750_english,2022.2.5,60.023361088339854,
L_h.bmp,None,L_f.bmp,None,L_l.bmp,None,L_l.bmp,None,0.75,0.75,,,,,0,23,23,23,,,,,,,,,,,,,,,,,,,,,,,,,,,,,,,,,,,,,,,,,,464.8220384999877,464.8220384999877,None,1,,465.5724579000089,465.5724579000089,,,,,,,,,,,,,,,,,,,,,,,,,,,,,,,,,TEST,001,2023-04-28_13h07.34.427,PGNGS_RST_750_english,2022.2.5,60.023361088339854,
L_b.bmp,None,L_l.bmp,None,L_s.bmp,n,L_f.bmp,None,0.75,0.75,,,,,0,24,24,24,,,,,,,,,,,,,,,,,,,,,,,,,,,,,,,,,,,,,,,,,,465.5724579000089,465.5724579000089,None,1,,,,,,,,,,,,,,,,,,,,,,,,,,,,,,,,,,,,TEST,001,2023-04-28_13h07.34.427,PGNGS_RST_750_english,2022.2.5,60.023361088339854,
L_v.bmp,None,L_s.bmp,n,L_j.bmp,None,L_r.bmp,None,0.75,0.75,,,,,0,25,25,25,,,,,,,,,,,,,,,,,,,,,,,,,,,,,,,,,,,,,,,,,,466.337564299989,466.337564299989,n,1,0.6562136999855284,,,,,,,,,,,,,,,,,,,,,,,,,,,,,,,,,,,TEST,001,2023-04-28_13h07.34.427,PGNGS_RST_750_english,2022.2.5,60.023361088339854,
L_c.bmp,None,L_n.bmp,None,L_g.bmp,None,L_n.bmp,None,0.75,0.75,,,,,0,26,26,26,,,,,,,,,,,,,,,,,,,,,,,,,,,,,,,,,,,,,,,,,,467.0868809999956,467.0868809999956,None,1,,,,,,,,,,,,,,,,,,,,,,,,,,,,,,,,,,,,TEST,001,2023-04-28_13h07.34.427,PGNGS_RST_750_english,2022.2.5,60.023361088339854,
L_l.bmp,None,L_d.bmp,None,L_f.bmp,None,L_d.bmp,None,0.75,0.4,,,,,0,27,27,27,,,,,,,,,,,,,,,,,,,,,,,,,,,,,,,,,,,,,,,,,,467.8360881000117,467.8360881000117,None,1,,,,,,,,,,,,,,,,,,,,,,,,,,,,,,,,,,,,TEST,001,2023-04-28_13h07.34.427,PGNGS_RST_750_english,2022.2.5,60.023361088339854,
L_m.bmp,None,L_r.bmp,n,L_t.bmp,n,L_s.bmp,n,0.75,0.35,,,,,0,28,28,28,,,,,,,,,,,,,,,,,,,,,,,,,,,,,,,,,,,,,,,,,,468.5857173000113,468.5857173000113,None,0,,,,,,,,,,,,,,,,,,,,,,,,,,,,,,,,,,,,TEST,001,2023-04-28_13h07.34.427,PGNGS_RST_750_english,2022.2.5,60.023361088339854,
L_n.bmp,None,L_v.bmp,None,L_d.bmp,None,L_v.bmp,None,0.75,0.75,,,,,0,29,29,29,,,,,,,,,,,,,,,,,,,,,,,,,,,,,,,,,,,,,,,,,,469.3353841000062,469.3353841000062,n,0,0.0018577000009827316,,,,,,,,,,,,,,,,,,,,,,,,,,,,,,,,,,,TEST,001,2023-04-28_13h07.34.427,PGNGS_RST_750_english,2022.2.5,60.023361088339854,
L_p.bmp,None,L_f.bmp,None,L_c.bmp,None,L_f.bmp,None,0.75,0.75,,,,,0,30,30,30,,,,,,,,,,,,,,,,,,,,,,,,,,,,,,,,,,,,,,,,,,470.08433710000827,470.08433710000827,None,1,,,,,,,,,,,,,,,,,,,,,,,,,,,,,,,,,,,,TEST,001,2023-04-28_13h07.34.427,PGNGS_RST_750_english,2022.2.5,60.023361088339854,
L_v.bmp,None,L_w.bmp,None,L_n.bmp,None,L_w.bmp,None,0.75,0.75,,,,,0,31,31,31,,,,,,,,,,,,,,,,,,,,,,,,,,,,,,,,,,,,,,,,,,470.833664100006,470.833664100006,None,1,,,,,,,,,,,,,,,,,,,,,,,,,,,,,,,,,,,,TEST,001,2023-04-28_13h07.34.427,PGNGS_RST_750_english,2022.2.5,60.023361088339854,
L_p.bmp,None,L_q.bmp,None,L_h.bmp,None,L_q.bmp,None,0.75,0.75,,,,,0,32,32,32,,,,,,,,,,,,,,,,,,,,,,,,,,,,,,,,,,,,,,,,,,471.58317619998707,471.58317619998707,None,1,,,,,,,,,,,,,,,,,,,,,,,,,,,,,,,,,,,,TEST,001,2023-04-28_13h07.34.427,PGNGS_RST_750_english,2022.2.5,60.023361088339854,
L_l.bmp,None,L_k.bmp,None,L_g.bmp,None,L_k.bmp,None,0.75,0.75,,,,,0,33,33,33,,,,,,,,,,,,,,,,,,,,,,,,,,,,,,,,,,,,,,,,,,472.33263940000325,472.33263940000325,None,1,,,,,,,,,,,,,,,,,,,,,,,,,,,,,,,,,,,,TEST,001,2023-04-28_13h07.34.427,PGNGS_RST_750_english,2022.2.5,60.023361088339854,
L_r.bmp,n,L_b.bmp,None,L_l.bmp,None,L_b.bmp,None,0.75,0.75,,,,,0,34,34,34,,,,,,,,,,,,,,,,,,,,,,,,,,,,,,,,,,,,,,,,,,473.08202669999446,473.08202669999446,None,1,,,,,,,,,,,,,,,,,,,,,,,,,,,,,,,,,,,,TEST,001,2023-04-28_13h07.34.427,PGNGS_RST_750_english,2022.2.5,60.023361088339854,
L_q.bmp,None,L_j.bmp,None,L_b.bmp,None,L_j.bmp,None,0.75,0.75,,,,,0,35,35,35,,,,,,,,,,,,,,,,,,,,,,,,,,,,,,,,,,,,,,,,,,473.8311981000006,473.8311981000006,None,1,,,,,,,,,,,,,,,,,,,,,,,,,,,,,,,,,,,,TEST,001,2023-04-28_13h07.34.427,PGNGS_RST_750_english,2022.2.5,60.023361088339854,
L_g.bmp,None,L_k.bmp,None,L_t.bmp,n,L_l.bmp,None,0.75,0.3,,,,,0,36,36,36,,,,,,,,,,,,,,,,,,,,,,,,,,,,,,,,,,,,,,,,,,474.5805513999949,474.5805513999949,None,1,,,,,,,,,,,,,,,,,,,,,,,,,,,,,,,,,,,,TEST,001,2023-04-28_13h07.34.427,PGNGS_RST_750_english,2022.2.5,60.023361088339854,
L_r.bmp,n,L_b.bmp,None,L_k.bmp,None,L_b.bmp,None,0.75,0.45,,,,,0,37,37,37,,,,,,,,,,,,,,,,,,,,,,,,,,,,,,,,,,,,,,,,,,475.3299512999947,475.3299512999947,None,1,,,,,,,,,,,,,,,,,,,,,,,,,,,,,,,,,,,,TEST,001,2023-04-28_13h07.34.427,PGNGS_RST_750_english,2022.2.5,60.023361088339854,
L_b.bmp,None,L_r.bmp,None,L_j.bmp,None,L_t.bmp,n,0.75,0.75,,,,,0,38,38,38,,,,,,,,,,,,,,,,,,,,,,,,,,,,,,,,,,,,,,,,,,476.0796132000105,476.0796132000105,n,0,0.46178780001355335,,,,,,,,,,,,,,,,,,,,,,,,,,,,,,,,,,,TEST,001,2023-04-28_13h07.34.427,PGNGS_RST_750_english,2022.2.5,60.023361088339854,
L_j.bmp,None,L_q.bmp,None,L_f.bmp,None,L_q.bmp,None,0.4,0.75,,,,,0,39,39,39,,,,,,,,,,,,,,,,,,,,,,,,,,,,,,,,,,,,,,,,,,476.8288770999934,476.8288770999934,None,1,,,,,,,,,,,,,,,,,,,,,,,,,,,,,,,,,,,,TEST,001,2023-04-28_13h07.34.427,PGNGS_RST_750_english,2022.2.5,60.023361088339854,
L_g.bmp,None,L_m.bmp,None,L_g.bmp,None,L_m.bmp,None,0.35,0.75,,,,,0,40,40,40,,,,,,,,,,,,,,,,,,,,,,,,,,,,,,,,,,,,,,,,,,477.5783533999929,477.5783533999929,None,1,,,,,,,,,,,,,,,,,,,,,,,,,,,,,,,,,,,,TEST,001,2023-04-28_13h07.34.427,PGNGS_RST_750_english,2022.2.5,60.023361088339854,
L_s.bmp,n,L_q.bmp,None,L_h.bmp,None,L_q.bmp,None,0.75,0.75,,,,,0,41,41,41,,,,,,,,,,,,,,,,,,,,,,,,,,,,,,,,,,,,,,,,,,478.3280081000121,478.3280081000121,None,1,,,,,,,,,,,,,,,,,,,,,,,,,,,,,,,,,,,,TEST,001,2023-04-28_13h07.34.427,PGNGS_RST_750_english,2022.2.5,60.023361088339854,
L_v.bmp,None,L_f.bmp,None,L_b.bmp,None,L_j.bmp,None,0.75,0.75,,,,,0,42,42,42,,,,,,,,,,,,,,,,,,,,,,,,,,,,,,,,,,,,,,,,,,479.07706999999937,479.07706999999937,None,1,,,,,,,,,,,,,,,,,,,,,,,,,,,,,,,,,,,,TEST,001,2023-04-28_13h07.34.427,PGNGS_RST_750_english,2022.2.5,60.023361088339854,
L_m.bmp,None,L_j.bmp,None,L_v.bmp,None,L_m.bmp,None,0.75,0.75,,,,,0,43,43,43,,,,,,,,,,,,,,,,,,,,,,,,,,,,,,,,,,,,,,,,,,479.82643200000166,479.82643200000166,None,1,,,,,,,,,,,,,,,,,,,,,,,,,,,,,,,,,,,,TEST,001,2023-04-28_13h07.34.427,PGNGS_RST_750_english,2022.2.5,60.023361088339854,
L_b.bmp,None,L_m.bmp,None,L_b.bmp,None,L_b.bmp,None,0.75,0.75,,,,,0,44,44,44,,,,,,,,,,,,,,,,,,,,,,,,,,,,,,,,,,,,,,,,,,480.57600279999315,480.57600279999315,None,1,,,,,,,,,,,,,,,,,,,,,,,,,,,,,,,,,,,,TEST,001,2023-04-28_13h07.34.427,PGNGS_RST_750_english,2022.2.5,60.023361088339854,
L_s.bmp,n,L_b.bmp,None,L_r.bmp,n,L_m.bmp,None,0.75,0.75,,,,,0,45,45,45,,,,,,,,,,,,,,,,,,,,,,,,,,,,,,,,,,,,,,,,,,481.32520389999263,481.32520389999263,None,1,,,,,,,,,,,,,,,,,,,,,,,,,,,,,,,,,,,,TEST,001,2023-04-28_13h07.34.427,PGNGS_RST_750_english,2022.2.5,60.023361088339854,
L_b.bmp,None,L_j.bmp,None,L_b.bmp,None,L_d.bmp,None,0.75,0.75,,,,,0,46,46,46,,,,,,,,,,,,,,,,,,,,,,,,,,,,,,,,,,,,,,,,,,482.07483080000384,482.07483080000384,None,1,,,,,,,,,,,,,,,,,,,,,,,,,,,,,,,,,,,,TEST,001,2023-04-28_13h07.34.427,PGNGS_RST_750_english,2022.2.5,60.023361088339854,
L_d.bmp,None,L_m.bmp,None,L_n.bmp,None,L_n.bmp,None,0.75,0.75,,,,,0,47,47,47,,,,,,,,,,,,,,,,,,,,,,,,,,,,,,,,,,,,,,,,,,482.8238279999932,482.8238279999932,None,1,,,,,,,,,,,,,,,,,,,,,,,,,,,,,,,,,,,,TEST,001,2023-04-28_13h07.34.427,PGNGS_RST_750_english,2022.2.5,60.023361088339854,
L_v.bmp,None,L_n.bmp,None,L_l.bmp,None,L_l.bmp,None,0.75,0.75,,,,,0,48,48,48,,,,,,,,,,,,,,,,,,,,,,,,,,,,,,,,,,,,,,,,,,483.57343210000545,483.57343210000545,None,1,,,,,,,,,,,,,,,,,,,,,,,,,,,,,,,,,,,,TEST,001,2023-04-28_13h07.34.427,PGNGS_RST_750_english,2022.2.5,60.023361088339854,
L_b.bmp,None,L_f.bmp,None,L_j.bmp,None,L_j.bmp,None,0.75,0.75,,,,,0,49,49,49,,,,,,,,,,,,,,,,,,,,,,,,,,,,,,,,,,,,,,,,,,484.32273970000097,484.32273970000097,None,1,,,,,,,,,,,,,,,,,,,,,,,,,,,,,,,,,,,,TEST,001,2023-04-28_13h07.34.427,PGNGS_RST_750_english,2022.2.5,60.023361088339854,
L_n.bmp,None,L_m.bmp,None,L_h.bmp,None,L_h.bmp,None,0.75,0.75,,,,,0,50,50,50,,,,,,,,,,,,,,,,,,,,,,,,,,,,,,,,,,,,,,,,,,485.0722178000142,485.0722178000142,None,1,,485.82929090000107,485.82929090000107,,,,,,,,,,,,,,,,,,,,,,,,,,,,,,,,,TEST,001,2023-04-28_13h07.34.427,PGNGS_RST_750_english,2022.2.5,60.023361088339854,
L_c.bmp,None,L_p.bmp,None,L_t.bmp,n,L_s.bmp,n,0.75,0.75,,,,,0,51,51,51,,,,,,,,,,,,,,,,,,,,,,,,,,,,,,,,,,,,,,,,,,485.82929090000107,485.82929090000107,None,1,,,,,,,,,,,,,,,,,,,,,,,,,,,,,,,,,,,,TEST,001,2023-04-28_13h07.34.427,PGNGS_RST_750_english,2022.2.5,60.023361088339854,
L_p.bmp,None,L_l.bmp,None,L_q.bmp,None,L_q.bmp,None,0.75,0.75,,,,,0,52,52,52,,,,,,,,,,,,,,,,,,,,,,,,,,,,,,,,,,,,,,,,,,486.58722819999093,486.58722819999093,None,1,,,,,,,,,,,,,,,,,,,,,,,,,,,,,,,,,,,,TEST,001,2023-04-28_13h07.34.427,PGNGS_RST_750_english,2022.2.5,60.023361088339854,
L_f.bmp,None,L_h.bmp,None,L_b.bmp,None,L_b.bmp,None,0.75,0.75,,,,,0,53,53,53,,,,,,,,,,,,,,,,,,,,,,,,,,,,,,,,,,,,,,,,,,487.33700619998854,487.33700619998854,None,1,,,,,,,,,,,,,,,,,,,,,,,,,,,,,,,,,,,,TEST,001,2023-04-28_13h07.34.427,PGNGS_RST_750_english,2022.2.5,60.023361088339854,
L_p.bmp,None,L_s.bmp,n,L_g.bmp,None,L_g.bmp,None,0.75,0.75,,,,,0,54,54,54,,,,,,,,,,,,,,,,,,,,,,,,,,,,,,,,,,,,,,,,,,488.0861703999981,488.0861703999981,n,1,0.38974109999253415,,,,,,,,,,,,,,,,,,,,,,,,,,,,,,,,,,,TEST,001,2023-04-28_13h07.34.427,PGNGS_RST_750_english,2022.2.5,60.023361088339854,
L_r.bmp,n,L_v.bmp,None,L_t.bmp,n,L_t.bmp,n,0.75,0.75,,,,,0,55,55,55,,,,,,,,,,,,,,,,,,,,,,,,,,,,,,,,,,,,,,,,,,488.8360079000122,488.8360079000122,None,1,,,,,,,,,,,,,,,,,,,,,,,,,,,,,,,,,,,,TEST,001,2023-04-28_13h07.34.427,PGNGS_RST_750_english,2022.2.5,60.023361088339854,
L_q.bmp,None,L_h.bmp,None,L_g.bmp,None,L_g.bmp,None,0.75,0.75,,,,,0,56,56,56,,,,,,,,,,,,,,,,,,,,,,,,,,,,,,,,,,,,,,,,,,489.58488589999615,489.58488589999615,None,1,,,,,,,,,,,,,,,,,,,,,,,,,,,,,,,,,,,,TEST,001,2023-04-28_13h07.34.427,PGNGS_RST_750_english,2022.2.5,60.023361088339854,
L_f.bmp,None,L_k.bmp,None,L_k.bmp,None,L_l.bmp,None,0.75,0.75,,,,,0,57,57,57,,,,,,,,,,,,,,,,,,,,,,,,,,,,,,,,,,,,,,,,,,490.33425429998897,490.33425429998897,None,1,,,,,,,,,,,,,,,,,,,,,,,,,,,,,,,,,,,,TEST,001,2023-04-28_13h07.34.427,PGNGS_RST_750_english,2022.2.5,60.023361088339854,
L_s.bmp,n,L_r.bmp,n,L_f.bmp,None,L_r.bmp,n,0.75,0.75,,,,,0,58,58,58,,,,,,,,,,,,,,,,,,,,,,,,,,,,,,,,,,,,,,,,,,491.08389710000483,491.08389710000483,n,1,0.6932333000004292,,,,,,,,,,,,,,,,,,,,,,,,,,,,,,,,,,,TEST,001,2023-04-28_13h07.34.427,PGNGS_RST_750_english,2022.2.5,60.023361088339854,
L_m.bmp,None,L_q.bmp,None,L_l.bmp,None,L_f.bmp,None,0.75,0.75,,,,,0,59,59,59,,,,,,,,,,,,,,,,,,,,,,,,,,,,,,,,,,,,,,,,,,491.8331851999974,491.8331851999974,None,1,,,,,,,,,,,,,,,,,,,,,,,,,,,,,,,,,,,,TEST,001,2023-04-28_13h07.34.427,PGNGS_RST_750_english,2022.2.5,60.023361088339854,
L_h.bmp,None,L_d.bmp,None,L_r.bmp,n,L_k.bmp,None,0.75,0.75,,,,,0,60,60,60,,,,,,,,,,,,,,,,,,,,,,,,,,,,,,,,,,,,,,,,,,492.58719680001377,492.58719680001377,None,1,,,,,,,,,,,,,,,,,,,,,,,,,,,,,,,,,,,,TEST,001,2023-04-28_13h07.34.427,PGNGS_RST_750_english,2022.2.5,60.023361088339854,
L_b.bmp,None,L_m.bmp,None,L_v.bmp,None,L_v.bmp,None,0.3,0.75,,,,,0,61,61,61,,,,,,,,,,,,,,,,,,,,,,,,,,,,,,,,,,,,,,,,,,493.33181719999993,493.33181719999993,None,1,,,,,,,,,,,,,,,,,,,,,,,,,,,,,,,,,,,,TEST,001,2023-04-28_13h07.34.427,PGNGS_RST_750_english,2022.2.5,60.023361088339854,
L_m.bmp,None,L_j.bmp,None,L_c.bmp,None,L_c.bmp,None,0.45,0.75,,,,,0,62,62,62,,,,,,,,,,,,,,,,,,,,,,,,,,,,,,,,,,,,,,,,,,494.081116699992,494.081116699992,None,1,,,,,,,,,,,,,,,,,,,,,,,,,,,,,,,,,,,,TEST,001,2023-04-28_13h07.34.427,PGNGS_RST_750_english,2022.2.5,60.023361088339854,
L_q.bmp,None,L_f.bmp,None,L_l.bmp,None,L_l.bmp,None,0.75,0.4,,,,,0,63,63,63,,,,,,,,,,,,,,,,,,,,,,,,,,,,,,,,,,,,,,,,,,494.83047149999766,494.83047149999766,None,1,,,,,,,,,,,,,,,,,,,,,,,,,,,,,,,,,,,,TEST,001,2023-04-28_13h07.34.427,PGNGS_RST_750_english,2022.2.5,60.023361088339854,
L_s.bmp,n,L_d.bmp,None,L_m.bmp,None,L_m.bmp,None,0.75,0.35,,,,,0,64,64,64,,,,,,,,,,,,,,,,,,,,,,,,,,,,,,,,,,,,,,,,,,495.57993929999066,495.57993929999066,None,1,,,,,,,,,,,,,,,,,,,,,,,,,,,,,,,,,,,,TEST,001,2023-04-28_13h07.34.427,PGNGS_RST_750_english,2022.2.5,60.023361088339854,
L_v.bmp,None,L_b.bmp,None,L_n.bmp,None,L_n.bmp,None,0.75,0.75,,,,,0,65,65,65,,,,,,,,,,,,,,,,,,,,,,,,,,,,,,,,,,,,,,,,,,496.3295143000141,496.3295143000141,None,1,,,,,,,,,,,,,,,,,,,,,,,,,,,,,,,,,,,,TEST,001,2023-04-28_13h07.34.427,PGNGS_RST_750_english,2022.2.5,60.023361088339854,
L_l.bmp,None,L_p.bmp,None,L_r.bmp,n,L_p.bmp,None,0.75,0.75,,,,,0,66,66,66,,,,,,,,,,,,,,,,,,,,,,,,,,,,,,,,,,,,,,,,,,497.0787776999932,497.0787776999932,None,1,,,,,,,,,,,,,,,,,,,,,,,,,,,,,,,,,,,,TEST,001,2023-04-28_13h07.34.427,PGNGS_RST_750_english,2022.2.5,60.023361088339854,
L_s.bmp,n,L_w.bmp,None,L_f.bmp,None,L_v.bmp,None,0.75,0.75,,,,,0,67,67,67,,,,,,,,,,,,,,,,,,,,,,,,,,,,,,,,,,,,,,,,,,497.8282130000007,497.8282130000007,None,1,,,,,,,,,,,,,,,,,,,,,,,,,,,,,,,,,,,,TEST,001,2023-04-28_13h07.34.427,PGNGS_RST_750_english,2022.2.5,60.023361088339854,
L_j.bmp,None,L_d.bmp,None,L_p.bmp,None,L_p.bmp,None,0.75,0.75,,,,,0,68,68,68,,,,,,,,,,,,,,,,,,,,,,,,,,,,,,,,,,,,,,,,,,498.5773625000147,498.5773625000147,None,1,,,,,,,,,,,,,,,,,,,,,,,,,,,,,,,,,,,,TEST,001,2023-04-28_13h07.34.427,PGNGS_RST_750_english,2022.2.5,60.023361088339854,
L_g.bmp,None,L_f.bmp,None,L_l.bmp,None,L_l.bmp,None,0.75,0.75,,,,,0,69,69,69,,,,,,,,,,,,,,,,,,,,,,,,,,,,,,,,,,,,,,,,,,499.3269844999886,499.3269844999886,None,1,,,,,,,,,,,,,,,,,,,,,,,,,,,,,,,,,,,,TEST,001,2023-04-28_13h07.34.427,PGNGS_RST_750_english,2022.2.5,60.023361088339854,
L_f.bmp,None,L_r.bmp,None,L_r.bmp,n,L_r.bmp,None,0.75,0.75,,,,,0,70,70,70,,,,,,,,,,,,,,,,,,,,,,,,,,,,,,,,,,,,,,,,,,500.076307899988,500.076307899988,None,1,,,,,,,,,,,,,,,,,,,,,,,,,,,,,,,,,,,,TEST,001,2023-04-28_13h07.34.427,PGNGS_RST_750_english,2022.2.5,60.023361088339854,
L_d.bmp,None,L_p.bmp,None,L_q.bmp,None,L_q.bmp,None,0.75,0.75,,,,,0,71,71,71,,,,,,,,,,,,,,,,,,,,,,,,,,,,,,,,,,,,,,,,,,500.8257362000004,500.8257362000004,None,1,,,,,,,,,,,,,,,,,,,,,,,,,,,,,,,,,,,,TEST,001,2023-04-28_13h07.34.427,PGNGS_RST_750_english,2022.2.5,60.023361088339854,
L_r.bmp,n,L_d.bmp,None,L_g.bmp,None,L_f.bmp,None,0.75,0.75,,,,,0,72,72,72,,,,,,,,,,,,,,,,,,,,,,,,,,,,,,,,,,,,,,,,,,501.5752523000119,501.5752523000119,None,1,,,,,,,,,,,,,,,,,,,,,,,,,,,,,,,,,,,,TEST,001,2023-04-28_13h07.34.427,PGNGS_RST_750_english,2022.2.5,60.023361088339854,
L_c.bmp,None,L_l.bmp,None,L_r.bmp,n,L_m.bmp,None,0.75,0.75,,,,,0,73,73,73,,,,,,,,,,,,,,,,,,,,,,,,,,,,,,,,,,,,,,,,,,502.3245514000009,502.3245514000009,None,1,,,,,,,,,,,,,,,,,,,,,,,,,,,,,,,,,,,,TEST,001,2023-04-28_13h07.34.427,PGNGS_RST_750_english,2022.2.5,60.023361088339854,
L_n.bmp,None,L_h.bmp,None,L_b.bmp,None,L_p.bmp,None,0.75,0.75,,,,,0,74,74,74,,,,,,,,,,,,,,,,,,,,,,,,,,,,,,,,,,,,,,,,,,503.0739564000105,503.0739564000105,None,1,,,,,,,,,,,,,,,,,,,,,,,,,,,,,,,,,,,,TEST,001,2023-04-28_13h07.34.427,PGNGS_RST_750_english,2022.2.5,60.023361088339854,
L_h.bmp,None,L_l.bmp,None,L_j.bmp,None,L_l.bmp,None,0.75,0.75,,,,,0,75,75,75,,,,,,,,,,,,,,,,,,,,,,,,,,,,,,,,,,,,,,,,,,503.82342800000333,503.82342800000333,None,1,,,,,,,,,,,,,,,,,,,,,,,,,,,,,,,,,,,,TEST,001,2023-04-28_13h07.34.427,PGNGS_RST_750_english,2022.2.5,60.023361088339854,
L_g.bmp,None,L_m.bmp,None,L_g.bmp,None,L_h.bmp,None,0.75,0.75,,,,,0,76,76,76,,,,,,,,,,,,,,,,,,,,,,,,,,,,,,,,,,,,,,,,,,504.57252029998926,504.57252029998926,None,1,,,,,,,,,,,,,,,,,,,,,,,,,,,,,,,,,,,,TEST,001,2023-04-28_13h07.34.427,PGNGS_RST_750_english,2022.2.5,60.023361088339854,
L_l.bmp,None,L_j.bmp,None,L_v.bmp,None,L_s.bmp,n,0.75,0.75,,,,,0,77,77,77,,,,,,,,,,,,,,,,,,,,,,,,,,,,,,,,,,,,,,,,,,505.3217035999987,505.3217035999987,None,1,,506.0715053000022,506.0715053000022,,,,,,,,,,,,,,,,,,,,,,,,,,,,,,,,,TEST,001,2023-04-28_13h07.34.427,PGNGS_RST_750_english,2022.2.5,60.023361088339854,
L_s.bmp,n,L_p.bmp,None,L_s.bmp,n,L_v.bmp,None,0.75,0.75,,,,,0,78,78,78,,,,,,,,,,,,,,,,,,,,,,,,,,,,,,,,,,,,,,,,,,506.0715053000022,506.0715053000022,None,1,,506.82053689999157,506.82053689999157,,,,,,,,,,,,,,,,,,,,,,,,,,,,,,,,,TEST,001,2023-04-28_13h07.34.427,PGNGS_RST_750_english,2022.2.5,60.023361088339854,
L_f.bmp,None,L_b.bmp,None,L_b.bmp,None,L_p.bmp,None,0.75,0.75,,,,,0,79,79,79,,,,,,,,,,,,,,,,,,,,,,,,,,,,,,,,,,,,,,,,,,506.82053689999157,506.82053689999157,None,1,,507.5705903999915,507.5705903999915,,,,,,,,,,,,,,,,,,,,,,,,,,,,,,,,,TEST,001,2023-04-28_13h07.34.427,PGNGS_RST_750_english,2022.2.5,60.023361088339854,
L_n.bmp,None,L_f.bmp,None,L_v.bmp,None,L_d.bmp,None,0.75,0.75,,,,,0,80,80,80,,,,,,,,,,,,,,,,,,,,,,,,,,,,,,,,,,,,,,,,,,507.5705903999915,507.5705903999915,None,1,,,,,,,,,,,,,,,,,,,,,,,,,,,,,,,,,,,,TEST,001,2023-04-28_13h07.34.427,PGNGS_RST_750_english,2022.2.5,60.023361088339854,
L_w.bmp,None,L_s.bmp,n,L_h.bmp,None,L_s.bmp,None,0.75,0.75,,,,,0,81,81,81,,,,,,,,,,,,,,,,,,,,,,,,,,,,,,,,,,,,,,,,,,508.3362838999892,508.3362838999892,n,1,0.45093059999635443,,,,,,,,,,,,,,,,,,,,,,,,,,,,,,,,,,,TEST,001,2023-04-28_13h07.34.427,PGNGS_RST_750_english,2022.2.5,60.023361088339854,
L_b.bmp,None,L_l.bmp,None,L_w.bmp,None,L_j.bmp,None,0.75,0.75,,,,,0,82,82,82,,,,,,,,,,,,,,,,,,,,,,,,,,,,,,,,,,,,,,,,,,509.08541289999266,509.08541289999266,None,1,,,,,,,,,,,,,,,,,,,,,,,,,,,,,,,,,,,,TEST,001,2023-04-28_13h07.34.427,PGNGS_RST_750_english,2022.2.5,60.023361088339854,
L_v.bmp,None,L_j.bmp,None,L_m.bmp,None,L_d.bmp,None,0.75,0.75,,,,,0,83,83,83,,,,,,,,,,,,,,,,,,,,,,,,,,,,,,,,,,,,,,,,,,509.8347211999935,509.8347211999935,None,1,,,,,,,,,,,,,,,,,,,,,,,,,,,,,,,,,,,,TEST,001,2023-04-28_13h07.34.427,PGNGS_RST_750_english,2022.2.5,60.023361088339854,
L_s.bmp,n,L_r.bmp,n,L_j.bmp,None,L_b.bmp,None,0.4,0.75,,,,,0,84,84,84,,,,,,,,,,,,,,,,,,,,,,,,,,,,,,,,,,,,,,,,,,510.5839618000027,510.5839618000027,None,0,,,,,,,,,,,,,,,,,,,,,,,,,,,,,,,,,,,,TEST,001,2023-04-28_13h07.34.427,PGNGS_RST_750_english,2022.2.5,60.023361088339854,
L_q.bmp,None,L_m.bmp,None,L_m.bmp,None,L_t.bmp,n,0.35,0.75,,,,,0,85,85,85,,,,,,,,,,,,,,,,,,,,,,,,,,,,,,,,,,,,,,,,,,511.33348930001375,511.33348930001375,n,0,0.15033549998770468,,,,,,,,,,,,,,,,,,,,,,,,,,,,,,,,,,,TEST,001,2023-04-28_13h07.34.427,PGNGS_RST_750_english,2022.2.5,60.023361088339854,
L_d.bmp,None,L_v.bmp,None,L_g.bmp,None,L_q.bmp,None,0.75,0.75,,,,,0,86,86,86,,,,,,,,,,,,,,,,,,,,,,,,,,,,,,,,,,,,,,,,,,512.0829926999868,512.0829926999868,None,1,,,,,,,,,,,,,,,,,,,,,,,,,,,,,,,,,,,,TEST,001,2023-04-28_13h07.34.427,PGNGS_RST_750_english,2022.2.5,60.023361088339854,
L_r.bmp,n,L_d.bmp,None,L_k.bmp,None,L_m.bmp,None,0.75,0.3,,,,,0,87,87,87,,,,,,,,,,,,,,,,,,,,,,,,,,,,,,,,,,,,,,,,,,512.8323349000129,512.8323349000129,None,1,,,,,,,,,,,,,,,,,,,,,,,,,,,,,,,,,,,,TEST,001,2023-04-28_13h07.34.427,PGNGS_RST_750_english,2022.2.5,60.023361088339854,
L_v.bmp,None,L_s.bmp,n,L_b.bmp,None,L_q.bmp,None,0.75,0.45,,,,,0,88,88,88,,,,,,,,,,,,,,,,,,,,,,,,,,,,,,,,,,,,,,,,,,513.5815917,513.5815917,n,1,0.5979210999794304,,,,,,,,,,,,,,,,,,,,,,,,,,,,,,,,,,,TEST,001,2023-04-28_13h07.34.427,PGNGS_RST_750_english,2022.2.5,60.023361088339854,
L_c.bmp,None,L_j.bmp,None,L_r.bmp,n,L_s.bmp,n,0.75,0.75,,,,,0,89,89,89,,,,,,,,,,,,,,,,,,,,,,,,,,,,,,,,,,,,,,,,,,514.3309626000118,514.3309626000118,None,1,,,,,,,,,,,,,,,,,,,,,,,,,,,,,,,,,,,,TEST,001,2023-04-28_13h07.34.427,PGNGS_RST_750_english,2022.2.5,60.023361088339854,
L_j.bmp,None,L_d.bmp,None,L_n.bmp,None,L_d.bmp,None,0.75,0.75,,,,,0,90,90,90,,,,,,,,,,,,,,,,,,,,,,,,,,,,,,,,,,,,,,,,,,515.0805202999909,515.0805202999909,None,1,,,,,,,,,,,,,,,,,,,,,,,,,,,,,,,,,,,,TEST,001,2023-04-28_13h07.34.427,PGNGS_RST_750_english,2022.2.5,60.023361088339854,
L_k.bmp,None,L_b.bmp,None,L_q.bmp,None,L_w.bmp,None,0.75,0.75,,,,,0,91,91,91,,,,,,,,,,,,,,,,,,,,,,,,,,,,,,,,,,,,,,,,,,515.829847999994,515.829847999994,None,1,,,,,,,,,,,,,,,,,,,,,,,,,,,,,,,,,,,,TEST,001,2023-04-28_13h07.34.427,PGNGS_RST_750_english,2022.2.5,60.023361088339854,
L_w.bmp,None,L_s.bmp,None,L_f.bmp,None,L_p.bmp,None,0.75,0.75,,,,,0,92,92,92,,,,,,,,,,,,,,,,,,,,,,,,,,,,,,,,,,,,,,,,,,516.5794893999991,516.5794893999991,n,0,0.6815234999812674,,,,,,,,,,,,,,,,,,,,,,,,,,,,,,,,,,,TEST,001,2023-04-28_13h07.34.427,PGNGS_RST_750_english,2022.2.5,60.023361088339854,
L_s.bmp,n,L_q.bmp,None,L_t.bmp,n,L_f.bmp,None,0.75,0.75,,,,,0,93,93,93,,,,,,,,,,,,,,,,,,,,,,,,,,,,,,,,,,,,,,,,,,517.3286569000047,517.3286569000047,None,1,,,,,,,,,,,,,,,,,,,,,,,,,,,,,,,,,,,,TEST,001,2023-04-28_13h07.34.427,PGNGS_RST_750_english,2022.2.5,60.023361088339854,
L_f.bmp,None,L_m.bmp,None,L_p.bmp,None,L_s.bmp,None,0.75,0.75,,,,,0,94,94,94,,,,,,,,,,,,,,,,,,,,,,,,,,,,,,,,,,,,,,,,,,518.0779755999974,518.0779755999974,None,1,,,,,,,,,,,,,,,,,,,,,,,,,,,,,,,,,,,,TEST,001,2023-04-28_13h07.34.427,PGNGS_RST_750_english,2022.2.5,60.023361088339854,
L_m.bmp,None,L_q.bmp,None,L_k.bmp,None,L_w.bmp,None,0.75,0.75,,,,,0,95,95,95,,,,,,,,,,,,,,,,,,,,,,,,,,,,,,,,,,,,,,,,,,518.8272682999959,518.8272682999959,None,1,,,,,,,,,,,,,,,,,,,,,,,,,,,,,,,,,,,,TEST,001,2023-04-28_13h07.34.427,PGNGS_RST_750_english,2022.2.5,60.023361088339854,
L_g.bmp,None,L_d.bmp,None,L_g.bmp,None,L_m.bmp,None,0.75,0.75,,,,,0,96,96,96,,,,,,,,,,,,,,,,,,,,,,,,,,,,,,,,,,,,,,,,,,519.5767696000112,519.5767696000112,None,1,,,,,,,,,,,,,,,,,,,,,,,,,,,,,,,,,,,,TEST,001,2023-04-28_13h07.34.427,PGNGS_RST_750_english,2022.2.5,60.023361088339854,
L_l.bmp,None,L_r.bmp,n,L_f.bmp,None,L_t.bmp,n,0.75,0.75,,,,,0,97,97,97,,,,,,,,,,,,,,,,,,,,,,,,,,,,,,,,,,,,,,,,,,520.326177400013,520.326177400013,n,1,0.40796789998421445,,,,,,,,,,,,,,,,,,,,,,,,,,,,,,,,,,,TEST,001,2023-04-28_13h07.34.427,PGNGS_RST_750_english,2022.2.5,60.023361088339854,
L_w.bmp,None,L_w.bmp,None,L_k.bmp,None,L_p.bmp,None,0.75,0.75,,,,,0,98,98,98,,,,,,,,,,,,,,,,,,,,,,,,,,,,,,,,,,,,,,,,,,521.0755781999906,521.0755781999906,None,1,,,,,,,,,,,,,,,,,,,,,,,,,,,,,,,,,,,,TEST,001,2023-04-28_13h07.34.427,PGNGS_RST_750_english,2022.2.5,60.023361088339854,
L_h.bmp,None,L_p.bmp,None,L_q.bmp,None,L_d.bmp,None,0.75,0.75,,,,,0,99,99,99,,,,,,,,,,,,,,,,,,,,,,,,,,,,,,,,,,,,,,,,,,521.82503919999,521.82503919999,None,1,,,,,,,,,,,,,,,,,,,,,,,,,,,,,,,,,,,,TEST,001,2023-04-28_13h07.34.427,PGNGS_RST_750_english,2022.2.5,60.023361088339854,
L_w.bmp,None,L_s.bmp,n,L_w.bmp,None,L_r.bmp,n,0.75,0.75,,,,,0,100,100,100,,,,,,,,,,,,,,,,,,,,,,,,,,,,,,,,,,,,,,,,,,522.574185800011,522.574185800011,n,1,0.47476059998734854,,,,,,,,,,,,,,,,,,,,,,,,,,,,,,,,,,,TEST,001,2023-04-28_13h07.34.427,PGNGS_RST_750_english,2022.2.5,60.023361088339854,
L_g.bmp,None,L_f.bmp,None,L_j.bmp,None,L_m.bmp,None,0.75,0.75,,,,,0,101,101,101,,,,,,,,,,,,,,,,,,,,,,,,,,,,,,,,,,,,,,,,,,523.3236168999865,523.3236168999865,None,1,,,,,,,,,,,,,,,,,,,,,,,,,,,,,,,,,,,,TEST,001,2023-04-28_13h07.34.427,PGNGS_RST_750_english,2022.2.5,60.023361088339854,
L_m.bmp,None,L_w.bmp,None,L_p.bmp,None,L_q.bmp,None,0.75,0.75,,,,,0,102,102,102,,,,,,,,,,,,,,,,,,,,,,,,,,,,,,,,,,,,,,,,,,524.0729907999921,524.0729907999921,None,1,,,,,,,,,,,,,,,,,,,,,,,,,,,,,,,,,,,,TEST,001,2023-04-28_13h07.34.427,PGNGS_RST_750_english,2022.2.5,60.023361088339854,
L_w.bmp,None,L_m.bmp,None,L_g.bmp,None,L_k.bmp,None,0.75,0.75,,,,,0,103,103,103,,,,,,,,,,,,,,,,,,,,,,,,,,,,,,,,,,,,,,,,,,524.8225984000019,524.8225984000019,None,1,,,,,,,,,,,,,,,,,,,,,,,,,,,,,,,,,,,,TEST,001,2023-04-28_13h07.34.427,PGNGS_RST_750_english,2022.2.5,60.023361088339854,
L_h.bmp,None,L_r.bmp,n,L_q.bmp,None,L_t.bmp,n,0.75,0.75,,,,,0,104,104,104,,,,,,,,,,,,,,,,,,,,,,,,,,,,,,,,,,,,,,,,,,525.5719690000114,525.5719690000114,n,1,0.4837678999756463,526.3216160000011,526.3216160000011,,,,,,,,,,,,,,,,,,,,,,,,,,,,,,,,,TEST,001,2023-04-28_13h07.34.427,PGNGS_RST_750_english,2022.2.5,60.023361088339854,
L_r.bmp,n,L_p.bmp,None,L_w.bmp,None,L_b.bmp,None,0.75,0.75,,,,,0,105,105,105,,,,,,,,,,,,,,,,,,,,,,,,,,,,,,,,,,,,,,,,,,526.3216160000011,526.3216160000011,None,1,,,,,,,,,,,,,,,,,,,,,,,,,,,,,,,,,,,,TEST,001,2023-04-28_13h07.34.427,PGNGS_RST_750_english,2022.2.5,60.023361088339854,
L_b.bmp,None,L_d.bmp,None,L_d.bmp,None,L_m.bmp,None,0.75,0.75,,,,,0,106,106,106,,,,,,,,,,,,,,,,,,,,,,,,,,,,,,,,,,,,,,,,,,527.0876044000033,527.0876044000033,None,1,,,,,,,,,,,,,,,,,,,,,,,,,,,,,,,,,,,,TEST,001,2023-04-28_13h07.34.427,PGNGS_RST_750_english,2022.2.5,60.023361088339854,
L_v.bmp,None,L_c.bmp,None,L_f.bmp,None,L_g.bmp,None,0.75,0.75,,,,,0,107,107,107,,,,,,,,,,,,,,,,,,,,,,,,,,,,,,,,,,,,,,,,,,527.8372897999943,527.8372897999943,None,1,,,,,,,,,,,,,,,,,,,,,,,,,,,,,,,,,,,,TEST,001,2023-04-28_13h07.34.427,PGNGS_RST_750_english,2022.2.5,60.023361088339854,
L_h.bmp,None,L_s.bmp,n,L_s.bmp,n,L_t.bmp,None,0.3,0.75,,,,,0,108,108,108,,,,,,,,,,,,,,,,,,,,,,,,,,,,,,,,,,,,,,,,,,528.5861236999917,528.5861236999917,None,0,,,,,,,,,,,,,,,,,,,,,,,,,,,,,,,,,,,,TEST,001,2023-04-28_13h07.34.427,PGNGS_RST_750_english,2022.2.5,60.023361088339854,
L_w.bmp,None,L_q.bmp,None,L_f.bmp,None,L_g.bmp,None,0.45,0.75,,,,,0,109,109,109,,,,,,,,,,,,,,,,,,,,,,,,,,,,,,,,,,,,,,,,,,529.3356434000016,529.3356434000016,n,0,0.0344578999793157,,,,,,,,,,,,,,,,,,,,,,,,,,,,,,,,,,,TEST,001,2023-04-28_13h07.34.427,PGNGS_RST_750_english,2022.2.5,60.023361088339854,
L_m.bmp,None,L_k.bmp,None,L_n.bmp,None,L_h.bmp,None,0.75,0.75,,,,,0,110,110,110,,,,,,,,,,,,,,,,,,,,,,,,,,,,,,,,,,,,,,,,,,530.0847941999964,530.0847941999964,None,1,,,,,,,,,,,,,,,,,,,,,,,,,,,,,,,,,,,,TEST,001,2023-04-28_13h07.34.427,PGNGS_RST_750_english,2022.2.5,60.023361088339854,
L_j.bmp,None,L_b.bmp,None,L_w.bmp,None,L_g.bmp,None,0.75,0.75,,,,,0,111,111,111,,,,,,,,,,,,,,,,,,,,,,,,,,,,,,,,,,,,,,,,,,530.8343352999946,530.8343352999946,None,1,,,,,,,,,,,,,,,,,,,,,,,,,,,,,,,,,,,,TEST,001,2023-04-28_13h07.34.427,PGNGS_RST_750_english,2022.2.5,60.023361088339854,
L_m.bmp,None,L_r.bmp,n,L_b.bmp,None,L_p.bmp,None,0.75,0.75,,,,,0,112,112,112,,,,,,,,,,,,,,,,,,,,,,,,,,,,,,,,,,,,,,,,,,531.5836580999894,531.5836580999894,n,1,0.4442084999755025,,,,,,,,,,,,,,,,,,,,,,,,,,,,,,,,,,,TEST,001,2023-04-28_13h07.34.427,PGNGS_RST_750_english,2022.2.5,60.023361088339854,
L_g.bmp,None,L_m.bmp,None,L_s.bmp,n,L_c.bmp,None,0.75,0.75,,,,,0,113,113,113,,,,,,,,,,,,,,,,,,,,,,,,,,,,,,,,,,,,,,,,,,532.3331655999937,532.3331655999937,None,1,,,,,,,,,,,,,,,,,,,,,,,,,,,,,,,,,,,,TEST,001,2023-04-28_13h07.34.427,PGNGS_RST_750_english,2022.2.5,60.023361088339854,
L_k.bmp,None,L_l.bmp,None,L_v.bmp,None,L_r.bmp,n,0.75,0.75,,,,,0,114,114,114,,,,,,,,,,,,,,,,,,,,,,,,,,,,,,,,,,,,,,,,,,533.0825414000137,533.0825414000137,None,1,,,,,,,,,,,,,,,,,,,,,,,,,,,,,,,,,,,,TEST,001,2023-04-28_13h07.34.427,PGNGS_RST_750_english,2022.2.5,60.023361088339854,
L_b.bmp,None,L_h.bmp,None,L_q.bmp,None,L_h.bmp,None,0.75,0.75,,,,,0,115,115,115,,,,,,,,,,,,,,,,,,,,,,,,,,,,,,,,,,,,,,,,,,533.8317290999985,533.8317290999985,None,1,,,,,,,,,,,,,,,,,,,,,,,,,,,,,,,,,,,,TEST,001,2023-04-28_13h07.34.427,PGNGS_RST_750_english,2022.2.5,60.023361088339854,
L_r.bmp,n,L_g.bmp,None,L_d.bmp,None,L_d.bmp,None,0.75,0.75,,,,,0,116,116,116,,,,,,,,,,,,,,,,,,,,,,,,,,,,,,,,,,,,,,,,,,534.5813648999901,534.5813648999901,None,1,,,,,,,,,,,,,,,,,,,,,,,,,,,,,,,,,,,,TEST,001,2023-04-28_13h07.34.427,PGNGS_RST_750_english,2022.2.5,60.023361088339854,
L_n.bmp,None,L_r.bmp,None,L_r.bmp,n,L_m.bmp,None,0.75,0.25,,,,,0,117,117,117,,,,,,,,,,,,,,,,,,,,,,,,,,,,,,,,,,,,,,,,,,535.3312126999954,535.3312126999954,None,1,,,,,,,,,,,,,,,,,,,,,,,,,,,,,,,,,,,,TEST,001,2023-04-28_13h07.34.427,PGNGS_RST_750_english,2022.2.5,60.023361088339854,
L_q.bmp,None,L_g.bmp,None,L_v.bmp,None,L_j.bmp,None,0.75,0.5,,,,,0,118,118,118,,,,,,,,,,,,,,,,,,,,,,,,,,,,,,,,,,,,,,,,,,536.0799051999929,536.0799051999929,None,1,,,,,,,,,,,,,,,,,,,,,,,,,,,,,,,,,,,,TEST,001,2023-04-28_13h07.34.427,PGNGS_RST_750_english,2022.2.5,60.023361088339854,
L_f.bmp,None,L_p.bmp,None,L_c.bmp,None,L_p.bmp,None,0.75,0.75,,,,,0,119,119,119,,,,,,,,,,,,,,,,,,,,,,,,,,,,,,,,,,,,,,,,,,536.8294535999885,536.8294535999885,None,1,,,,,,,,,,,,,,,,,,,,,,,,,,,,,,,,,,,,TEST,001,2023-04-28_13h07.34.427,PGNGS_RST_750_english,2022.2.5,60.023361088339854,
L_r.bmp,n,L_c.bmp,None,L_j.bmp,None,L_b.bmp,None,0.75,0.75,,,,,0,120,120,120,,,,,,,,,,,,,,,,,,,,,,,,,,,,,,,,,,,,,,,,,,537.578691600007,537.578691600007,None,1,,,,,,,,,,,,,,,,,,,,,,,,,,,,,,,,,,,,TEST,001,2023-04-28_13h07.34.427,PGNGS_RST_750_english,2022.2.5,60.023361088339854,
L_p.bmp,None,L_s.bmp,n,L_k.bmp,None,L_s.bmp,n,0.25,0.75,,,,,0,121,121,121,,,,,,,,,,,,,,,,,,,,,,,,,,,,,,,,,,,,,,,,,,538.3282366000058,538.3282366000058,n,1,0.460830399999395,,,,,,,,,,,,,,,,,,,,,,,,,,,,,,,,,,,TEST,001,2023-04-28_13h07.34.427,PGNGS_RST_750_english,2022.2.5,60.023361088339854,
L_k.bmp,None,L_g.bmp,None,L_w.bmp,None,L_b.bmp,None,0.5,0.75,,,,,0,122,122,122,,,,,,,,,,,,,,,,,,,,,,,,,,,,,,,,,,,,,,,,,,539.0778124000062,539.0778124000062,None,1,,,,,,,,,,,,,,,,,,,,,,,,,,,,,,,,,,,,TEST,001,2023-04-28_13h07.34.427,PGNGS_RST_750_english,2022.2.5,60.023361088339854,
L_s.bmp,n,L_h.bmp,None,L_t.bmp,n,L_f.bmp,None,0.75,0.75,,,,,0,123,123,123,,,,,,,,,,,,,,,,,,,,,,,,,,,,,,,,,,,,,,,,,,539.8272262999963,539.8272262999963,None,1,,,,,,,,,,,,,,,,,,,,,,,,,,,,,,,,,,,,TEST,001,2023-04-28_13h07.34.427,PGNGS_RST_750_english,2022.2.5,60.023361088339854,
L_f.bmp,None,L_m.bmp,None,L_f.bmp,None,L_r.bmp,n,0.75,0.75,,,,,0,124,124,124,,,,,,,,,,,,,,,,,,,,,,,,,,,,,,,,,,,,,,,,,,540.5763653999893,540.5763653999893,None,1,,,,,,,,,,,,,,,,,,,,,,,,,,,,,,,,,,,,TEST,001,2023-04-28_13h07.34.427,PGNGS_RST_750_english,2022.2.5,60.023361088339854,
L_g.bmp,None,L_j.bmp,None,L_m.bmp,None,L_w.bmp,None,0.75,0.75,,,,,0,125,125,125,,,,,,,,,,,,,,,,,,,,,,,,,,,,,,,,,,,,,,,,,,541.3258745000057,541.3258745000057,None,1,,,,,,,,,,,,,,,,,,,,,,,,,,,,,,,,,,,,TEST,001,2023-04-28_13h07.34.427,PGNGS_RST_750_english,2022.2.5,60.023361088339854,
L_k.bmp,None,L_p.bmp,None,L_g.bmp,None,L_h.bmp,None,0.75,0.75,,,,,0,126,126,126,,,,,,,,,,,,,,,,,,,,,,,,,,,,,,,,,,,,,,,,,,542.0750853999925,542.0750853999925,None,1,,,,,,,,,,,,,,,,,,,,,,,,,,,,,,,,,,,,TEST,001,2023-04-28_13h07.34.427,PGNGS_RST_750_english,2022.2.5,60.023361088339854,
L_w.bmp,None,L_b.bmp,None,L_l.bmp,None,L_k.bmp,None,0.75,0.75,,,,,0,127,127,127,,,,,,,,,,,,,,,,,,,,,,,,,,,,,,,,,,,,,,,,,,542.8245640000096,542.8245640000096,None,1,,,,,,,,,,,,,,,,,,,,,,,,,,,,,,,,,,,,TEST,001,2023-04-28_13h07.34.427,PGNGS_RST_750_english,2022.2.5,60.023361088339854,
L_j.bmp,None,L_s.bmp,None,L_w.bmp,None,L_r.bmp,None,0.75,0.75,,,,,0,128,128,128,,,,,,,,,,,,,,,,,,,,,,,,,,,,,,,,,,,,,,,,,,543.5739060000051,543.5739060000051,n,0,0.6373237000079826,,,,,,,,,,,,,,,,,,,,,,,,,,,,,,,,,,,TEST,001,2023-04-28_13h07.34.427,PGNGS_RST_750_english,2022.2.5,60.023361088339854,
L_p.bmp,None,L_g.bmp,None,L_h.bmp,None,L_q.bmp,None,0.75,0.75,,,,,0,129,129,129,,,,,,,,,,,,,,,,,,,,,,,,,,,,,,,,,,,,,,,,,,544.3232566000079,544.3232566000079,None,1,,,,,,,,,,,,,,,,,,,,,,,,,,,,,,,,,,,,TEST,001,2023-04-28_13h07.34.427,PGNGS_RST_750_english,2022.2.5,60.023361088339854,
L_g.bmp,None,L_b.bmp,None,L_w.bmp,None,L_d.bmp,None,0.75,0.75,,,,,0,130,130,130,,,,,,,,,,,,,,,,,,,,,,,,,,,,,,,,,,,,,,,,,,545.0726139000035,545.0726139000035,None,1,,,,,,,,,,,,,,,,,,,,,,,,,,,,,,,,,,,,TEST,001,2023-04-28_13h07.34.427,PGNGS_RST_750_english,2022.2.5,60.023361088339854,
L_q.bmp,None,L_w.bmp,None,L_g.bmp,None,L_l.bmp,None,0.75,0.75,,,,,0,131,131,131,,,,,,,,,,,,,,,,,,,,,,,,,,,,,,,,,,,,,,,,,,545.8258173000067,545.8258173000067,None,1,,,,,,,,,,,,,,,,,,,,,,,,,,,,,,,,,,,,TEST,001,2023-04-28_13h07.34.427,PGNGS_RST_750_english,2022.2.5,60.023361088339854,
L_w.bmp,None,L_r.bmp,n,L_m.bmp,None,L_j.bmp,None,0.75,0.75,,,,,0,132,132,132,,,,,,,,,,,,,,,,,,,,,,,,,,,,,,,,,,,,,,,,,,546.5881705000065,546.5881705000065,n,1,0.4805460999778006,,,,,,,,,,,,,,,,,,,,,,,,,,,,,,,,,,,TEST,001,2023-04-28_13h07.34.427,PGNGS_RST_750_english,2022.2.5,60.023361088339854,
L_d.bmp,None,L_b.bmp,None,L_w.bmp,None,L_f.bmp,None,0.75,0.75,,,,,0,133,133,133,,,,,,,,,,,,,,,,,,,,,,,,,,,,,,,,,,,,,,,,,,547.3375667000073,547.3375667000073,None,1,,,,,,,,,,,,,,,,,,,,,,,,,,,,,,,,,,,,TEST,001,2023-04-28_13h07.34.427,PGNGS_RST_750_english,2022.2.5,60.023361088339854,
L_f.bmp,None,L_k.bmp,None,L_h.bmp,None,L_s.bmp,n,0.75,0.75,,,,,0,134,134,134,,,,,,,,,,,,,,,,,,,,,,,,,,,,,,,,,,,,,,,,,,548.0869204000046,548.0869204000046,None,1,,,,,,,,,,,,,,,,,,,,,,,,,,,,,,,,,,,,TEST,001,2023-04-28_13h07.34.427,PGNGS_RST_750_english,2022.2.5,60.023361088339854,
L_s.bmp,n,L_g.bmp,None,L_r.bmp,n,L_b.bmp,None,0.75,0.75,,,,,0,135,135,135,,,,,,,,,,,,,,,,,,,,,,,,,,,,,,,,,,,,,,,,,,548.8362414999865,548.8362414999865,None,1,,,,,,,,,,,,,,,,,,,,,,,,,,,,,,,,,,,,TEST,001,2023-04-28_13h07.34.427,PGNGS_RST_750_english,2022.2.5,60.023361088339854,
L_j.bmp,None,L_s.bmp,n,L_j.bmp,None,L_p.bmp,None,0.75,0.75,,,,,0,136,136,136,,,,,,,,,,,,,,,,,,,,,,,,,,,,,,,,,,,,,,,,,,549.5897032000066,549.5897032000066,n,1,0.5396061999781523,,,,,,,,,,,,,,,,,,,,,,,,,,,,,,,,,,,TEST,001,2023-04-28_13h07.34.427,PGNGS_RST_750_english,2022.2.5,60.023361088339854,
L_k.bmp,None,L_g.bmp,None,L_k.bmp,None,L_w.bmp,None,0.75,0.75,,,,,0,137,137,137,,,,,,,,,,,,,,,,,,,,,,,,,,,,,,,,,,,,,,,,,,550.33493859999,550.33493859999,None,1,,,,,,,,,,,,,,,,,,,,,,,,,,,,,,,,,,,,TEST,001,2023-04-28_13h07.34.427,PGNGS_RST_750_english,2022.2.5,60.023361088339854,
L_r.bmp,n,L_b.bmp,None,L_r.bmp,n,L_f.bmp,None,0.75,0.25,,,,,0,138,138,138,,,,,,,,,,,,,,,,,,,,,,,,,,,,,,,,,,,,,,,,,,551.0841361999919,551.0841361999919,None,1,,,,,,,,,,,,,,,,,,,,,,,,,,,,,,,,,,,,TEST,001,2023-04-28_13h07.34.427,PGNGS_RST_750_english,2022.2.5,60.023361088339854,
L_k.bmp,None,L_r.bmp,n,L_k.bmp,None,L_k.bmp,None,0.75,0.5,,,,,0,139,139,139,,,,,,,,,,,,,,,,,,,,,,,,,,,,,,,,,,,,,,,,,,551.8336305000121,551.8336305000121,None,0,,,,,,,,,,,,,,,,,,,,,,,,,,,,,,,,,,,,TEST,001,2023-04-28_13h07.34.427,PGNGS_RST_750_english,2022.2.5,60.023361088339854,
L_f.bmp,None,L_j.bmp,None,L_f.bmp,None,L_p.bmp,None,0.75,0.75,,,,,0,140,140,140,,,,,,,,,,,,,,,,,,,,,,,,,,,,,,,,,,,,,,,,,,552.5830242999946,552.5830242999946,n,0,0.030922100006137043,,,,,,,,,,,,,,,,,,,,,,,,,,,,,,,,,,,TEST,001,2023-04-28_13h07.34.427,PGNGS_RST_750_english,2022.2.5,60.023361088339854,
L_l.bmp,None,L_b.bmp,None,L_l.bmp,None,L_t.bmp,n,0.75,0.75,,,,,0,141,141,141,,,,,,,,,,,,,,,,,,,,,,,,,,,,,,,,,,,,,,,,,,553.3323716000014,553.3323716000014,None,1,,,,,,,,,,,,,,,,,,,,,,,,,,,,,,,,,,,,TEST,001,2023-04-28_13h07.34.427,PGNGS_RST_750_english,2022.2.5,60.023361088339854,
L_s.bmp,n,L_s.bmp,n,L_t.bmp,n,L_l.bmp,None,0.75,0.75,,,,,0,142,142,142,,,,,,,,,,,,,,,,,,,,,,,,,,,,,,,,,,,,,,,,,,554.0820173000102,554.0820173000102,n,1,0.4978551999956835,,,,,,,,,,,,,,,,,,,,,,,,,,,,,,,,,,,TEST,001,2023-04-28_13h07.34.427,PGNGS_RST_750_english,2022.2.5,60.023361088339854,
L_n.bmp,None,L_n.bmp,None,L_n.bmp,None,L_b.bmp,None,0.75,0.75,,,,,0,143,143,143,,,,,,,,,,,,,,,,,,,,,,,,,,,,,,,,,,,,,,,,,,554.8315471000096,554.8315471000096,None,1,,,,,,,,,,,,,,,,,,,,,,,,,,,,,,,,,,,,TEST,001,2023-04-28_13h07.34.427,PGNGS_RST_750_english,2022.2.5,60.023361088339854,
L_d.bmp,None,L_j.bmp,None,L_d.bmp,None,L_h.bmp,None,0.75,0.75,,,,,0,144,144,144,,,,,,,,,,,,,,,,,,,,,,,,,,,,,,,,,,,,,,,,,,555.5804846000101,555.5804846000101,None,1,,,,,,,,,,,,,,,,,,,,,,,,,,,,,,,,,,,,TEST,001,2023-04-28_13h07.34.427,PGNGS_RST_750_english,2022.2.5,60.023361088339854,
L_s.bmp,n,L_h.bmp,None,L_s.bmp,n,L_c.bmp,None,0.75,0.75,,,,,0,145,145,145,,,,,,,,,,,,,,,,,,,,,,,,,,,,,,,,,,,,,,,,,,556.32993420001,556.32993420001,None,1,,,,,,,,,,,,,,,,,,,,,,,,,,,,,,,,,,,,TEST,001,2023-04-28_13h07.34.427,PGNGS_RST_750_english,2022.2.5,60.023361088339854,
L_v.bmp,None,L_m.bmp,None,L_v.bmp,None,L_m.bmp,None,0.75,0.75,,,,,0,146,146,146,,,,,,,,,,,,,,,,,,,,,,,,,,,,,,,,,,,,,,,,,,557.0795034999901,557.0795034999901,None,1,,,,,,,,,,,,,,,,,,,,,,,,,,,,,,,,,,,,TEST,001,2023-04-28_13h07.34.427,PGNGS_RST_750_english,2022.2.5,60.023361088339854,
L_f.bmp,None,L_q.bmp,None,L_f.bmp,None,L_j.bmp,None,0.75,0.75,,,,,0,147,147,147,,,,,,,,,,,,,,,,,,,,,,,,,,,,,,,,,,,,,,,,,,557.8286788999976,557.8286788999976,None,1,,,,,,,,,,,,,,,,,,,,,,,,,,,,,,,,,,,,TEST,001,2023-04-28_13h07.34.427,PGNGS_RST_750_english,2022.2.5,60.023361088339854,
L_w.bmp,None,L_b.bmp,None,L_w.bmp,None,L_p.bmp,None,0.75,0.75,,,,,0,148,148,148,,,,,,,,,,,,,,,,,,,,,,,,,,,,,,,,,,,,,,,,,,558.5781169999973,558.5781169999973,None,1,,,,,,,,,,,,,,,,,,,,,,,,,,,,,,,,,,,,TEST,001,2023-04-28_13h07.34.427,PGNGS_RST_750_english,2022.2.5,60.023361088339854,
L_q.bmp,None,L_g.bmp,None,L_q.bmp,None,L_b.bmp,None,0.25,0.75,,,,,0,149,149,149,,,,,,,,,,,,,,,,,,,,,,,,,,,,,,,,,,,,,,,,,,559.3277138000121,559.3277138000121,None,1,,,,,,,,,,,,,,,,,,,,,,,,,,,,,,,,,,,,TEST,001,2023-04-28_13h07.34.427,PGNGS_RST_750_english,2022.2.5,60.023361088339854,
L_k.bmp,None,L_r.bmp,n,L_k.bmp,None,L_f.bmp,None,0.5,0.75,,,,,0,150,150,150,,,,,,,,,,,,,,,,,,,,,,,,,,,,,,,,,,,,,,,,,,560.0771004999988,560.0771004999988,n,1,0.4659358999924734,,,,,,,,,,,,,,,,,,,,,,,,,,,,,,,,,,,TEST,001,2023-04-28_13h07.34.427,PGNGS_RST_750_english,2022.2.5,60.023361088339854,
L_b.bmp,None,L_j.bmp,None,L_b.bmp,None,L_l.bmp,None,0.75,0.75,,,,,0,151,151,151,,,,,,,,,,,,,,,,,,,,,,,,,,,,,,,,,,,,,,,,,,560.8264271999942,560.8264271999942,None,1,,,,,,,,,,,,,,,,,,,,,,,,,,,,,,,,,,,,TEST,001,2023-04-28_13h07.34.427,PGNGS_RST_750_english,2022.2.5,60.023361088339854,
L_f.bmp,None,L_f.bmp,None,L_j.bmp,None,L_v.bmp,None,0.75,0.75,,,,,0,152,152,152,,,,,,,,,,,,,,,,,,,,,,,,,,,,,,,,,,,,,,,,,,561.5756048999901,561.5756048999901,None,1,,,,,,,,,,,,,,,,,,,,,,,,,,,,,,,,,,,,TEST,001,2023-04-28_13h07.34.427,PGNGS_RST_750_english,2022.2.5,60.023361088339854,
L_j.bmp,None,L_v.bmp,None,L_c.bmp,None,L_j.bmp,None,0.75,0.75,,,,,0,153,153,153,,,,,,,,,,,,,,,,,,,,,,,,,,,,,,,,,,,,,,,,,,562.3249685000046,562.3249685000046,None,1,,,,,,,,,,,,,,,,,,,,,,,,,,,,,,,,,,,,TEST,001,2023-04-28_13h07.34.427,PGNGS_RST_750_english,2022.2.5,60.023361088339854,
L_s.bmp,n,L_f.bmp,None,L_s.bmp,n,L_t.bmp,None,0.75,0.75,,,,,0,154,154,154,,,,,,,,,,,,,,,,,,,,,,,,,,,,,,,,,,,,,,,,,,563.0743732000119,563.0743732000119,None,1,,,,,,,,,,,,,,,,,,,,,,,,,,,,,,,,,,,,TEST,001,2023-04-28_13h07.34.427,PGNGS_RST_750_english,2022.2.5,60.023361088339854,
L_b.bmp,None,L_g.bmp,None,L_b.bmp,None,L_m.bmp,None,0.75,0.75,,,,,0,155,155,155,,,,,,,,,,,,,,,,,,,,,,,,,,,,,,,,,,,,,,,,,,563.8238334000052,563.8238334000052,None,1,,,,,,,,,,,,,,,,,,,,,,,,,,,,,,,,,,,,TEST,001,2023-04-28_13h07.34.427,PGNGS_RST_750_english,2022.2.5,60.023361088339854,
L_q.bmp,None,L_h.bmp,None,L_q.bmp,None,L_k.bmp,None,0.75,0.75,,,,,0,156,156,156,,,,,,,,,,,,,,,,,,,,,,,,,,,,,,,,,,,,,,,,,,564.5730096999905,564.5730096999905,None,1,,,,,,,,,,,,,,,,,,,,,,,,,,,,,,,,,,,,TEST,001,2023-04-28_13h07.34.427,PGNGS_RST_750_english,2022.2.5,60.023361088339854,
L_m.bmp,None,L_b.bmp,None,L_m.bmp,None,L_b.bmp,None,0.75,0.75,,,,,0,157,157,157,,,,,,,,,,,,,,,,,,,,,,,,,,,,,,,,,,,,,,,,,,565.3225653000118,565.3225653000118,None,1,,,,,,,,,,,,,,,,,,,,,,,,,,,,,,,,,,,,TEST,001,2023-04-28_13h07.34.427,PGNGS_RST_750_english,2022.2.5,60.023361088339854,
L_q.bmp,None,L_v.bmp,None,L_q.bmp,None,L_s.bmp,n,0.75,0.75,,,,,0,158,158,158,,,,,,,,,,,,,,,,,,,,,,,,,,,,,,,,,,,,,,,,,,566.0717660000082,566.0717660000082,None,1,,566.821186599991,566.821186599991,,,,,,,,,,,,,,,,,,,,,,,,,,,,,,,,,TEST,001,2023-04-28_13h07.34.427,PGNGS_RST_750_english,2022.2.5,60.023361088339854,
L_f.bmp,None,L_c.bmp,None,L_f.bmp,None,L_b.bmp,None,0.75,0.75,,,,,0,159,159,159,,,,,,,,,,,,,,,,,,,,,,,,,,,,,,,,,,,,,,,,,,566.821186599991,566.821186599991,None,1,,567.5705611000012,567.5705611000012,,,,,,,,,,,,,,,,,,,,,,,,,,,,,,,,,TEST,001,2023-04-28_13h07.34.427,PGNGS_RST_750_english,2022.2.5,60.023361088339854,
L_j.bmp,None,L_l.bmp,None,L_j.bmp,None,L_d.bmp,None,0.75,0.3,,,,,0,160,160,160,,,,,,,,,,,,,,,,,,,,,,,,,,,,,,,,,,,,,,,,,,567.5705611000012,567.5705611000012,None,1,,568.3204765999981,568.3204765999981,,,,,,,,,,,,,,,,,,,,,,,,,,,,,,,,,TEST,001,2023-04-28_13h07.34.427,PGNGS_RST_750_english,2022.2.5,60.023361088339854,
L_m.bmp,None,L_m.bmp,None,L_m.bmp,None,L_v.bmp,None,0.3,0.45,,,,,0,161,161,161,,,,,,,,,,,,,,,,,,,,,,,,,,,,,,,,,,,,,,,,,,568.3204765999981,568.3204765999981,None,1,,,,,,,,,,,,,,,,,,,,,,,,,,,,,,,,,,,,TEST,001,2023-04-28_13h07.34.427,PGNGS_RST_750_english,2022.2.5,60.023361088339854,
L_b.bmp,None,L_n.bmp,None,L_b.bmp,None,L_b.bmp,None,0.45,0.75,,,,,0,162,162,162,,,,,,,,,,,,,,,,,,,,,,,,,,,,,,,,,,,,,,,,,,569.0863341999939,569.0863341999939,None,1,,,,,,,,,,,,,,,,,,,,,,,,,,,,,,,,,,,,TEST,001,2023-04-28_13h07.34.427,PGNGS_RST_750_english,2022.2.5,60.023361088339854,
L_w.bmp,None,L_p.bmp,None,L_m.bmp,None,L_n.bmp,None,0.75,0.75,,,,,0,163,163,163,,,,,,,,,,,,,,,,,,,,,,,,,,,,,,,,,,,,,,,,,,569.8356058000063,569.8356058000063,None,1,,,,,,,,,,,,,,,,,,,,,,,,,,,,,,,,,,,,TEST,001,2023-04-28_13h07.34.427,PGNGS_RST_750_english,2022.2.5,60.023361088339854,
L_m.bmp,None,L_v.bmp,None,L_b.bmp,None,L_c.bmp,None,0.75,0.75,,,,,0,164,164,164,,,,,,,,,,,,,,,,,,,,,,,,,,,,,,,,,,,,,,,,,,570.5860939999984,570.5860939999984,None,1,,,,,,,,,,,,,,,,,,,,,,,,,,,,,,,,,,,,TEST,001,2023-04-28_13h07.34.427,PGNGS_RST_750_english,2022.2.5,60.023361088339854,
L_n.bmp,None,L_p.bmp,None,L_n.bmp,None,L_p.bmp,None,0.75,0.75,,,,,0,165,165,165,,,,,,,,,,,,,,,,,,,,,,,,,,,,,,,,,,,,,,,,,,571.3341906999995,571.3341906999995,None,1,,,,,,,,,,,,,,,,,,,,,,,,,,,,,,,,,,,,TEST,001,2023-04-28_13h07.34.427,PGNGS_RST_750_english,2022.2.5,60.023361088339854,
L_f.bmp,None,L_r.bmp,None,L_f.bmp,None,L_f.bmp,None,0.75,0.75,,,,,0,166,166,166,,,,,,,,,,,,,,,,,,,,,,,,,,,,,,,,,,,,,,,,,,572.0836892999941,572.0836892999941,n,0,0.6467138000007253,,,,,,,,,,,,,,,,,,,,,,,,,,,,,,,,,,,TEST,001,2023-04-28_13h07.34.427,PGNGS_RST_750_english,2022.2.5,60.023361088339854,
L_m.bmp,None,L_l.bmp,None,L_m.bmp,None,L_p.bmp,None,0.75,0.75,,,,,0,167,167,167,,,,,,,,,,,,,,,,,,,,,,,,,,,,,,,,,,,,,,,,,,572.8330653999874,572.8330653999874,None,1,,,,,,,,,,,,,,,,,,,,,,,,,,,,,,,,,,,,TEST,001,2023-04-28_13h07.34.427,PGNGS_RST_750_english,2022.2.5,60.023361088339854,
None,None,L_q.bmp,None,None,None,L_t.bmp,n,0.75,0.75,,,,,0,168,168,168,,,,,,,,,,,,,,,,,,,,,,,,,,,,,,,,,,,,,,,,,,573.582942100009,573.582942100009,None,1,,,,,,,,,,,,,,,,,,,,,,,,,,,,,,,,,,,,TEST,001,2023-04-28_13h07.34.427,PGNGS_RST_750_english,2022.2.5,60.023361088339854,
None,None,L_g.bmp,None,None,None,L_q.bmp,None,0.75,0.75,,,,,0,169,169,169,,,,,,,,,,,,,,,,,,,,,,,,,,,,,,,,,,,,,,,,,,574.3318706999999,574.3318706999999,None,1,,,,,,,,,,,,,,,,,,,,,,,,,,,,,,,,,,,,TEST,001,2023-04-28_13h07.34.427,PGNGS_RST_750_english,2022.2.5,60.023361088339854,
None,None,L_s.bmp,n,None,None,L_v.bmp,None,0.75,0.75,,,,,0,170,170,170,,,,,,,,,,,,,,,,,,,,,,,,,,,,,,,,,,,,,,,,,,575.0815391000069,575.0815391000069,None,0,,,,,,,,,,,,,,,,,,,,,,,,,,,,,,,,,,,,TEST,001,2023-04-28_13h07.34.427,PGNGS_RST_750_english,2022.2.5,60.023361088339854,
None,None,L_b.bmp,None,None,None,L_s.bmp,n,0.75,0.75,,,,,0,171,171,171,,,,,,,,,,,,,,,,,,,,,,,,,,,,,,,,,,,,,,,,,,575.8340922000061,575.8340922000061,n,0,0.15727749999496154,,,,,,,,,,,,,,,,,,,,,,,,,,,,,,,,,,,TEST,001,2023-04-28_13h07.34.427,PGNGS_RST_750_english,2022.2.5,60.023361088339854,
None,None,L_j.bmp,None,None,None,L_m.bmp,None,0.75,0.75,,,,,0,172,172,172,,,,,,,,,,,,,,,,,,,,,,,,,,,,,,,,,,,,,,,,,,576.5798469000147,576.5798469000147,None,1,,,,,,,,,,,,,,,,,,,,,,,,,,,,,,,,,,,,TEST,001,2023-04-28_13h07.34.427,PGNGS_RST_750_english,2022.2.5,60.023361088339854,
None,None,L_g.bmp,None,None,None,L_h.bmp,None,0.75,0.75,,,,,0,173,173,173,,,,,,,,,,,,,,,,,,,,,,,,,,,,,,,,,,,,,,,,,,577.3299138000002,577.3299138000002,None,1,,,,,,,,,,,,,,,,,,,,,,,,,,,,,,,,,,,,TEST,001,2023-04-28_13h07.34.427,PGNGS_RST_750_english,2022.2.5,60.023361088339854,
None,None,L_r.bmp,n,None,None,L_b.bmp,None,0.75,0.75,,,,,0,174,174,174,,,,,,,,,,,,,,,,,,,,,,,,,,,,,,,,,,,,,,,,,,578.0843156999908,578.0843156999908,None,0,,,,,,,,,,,,,,,,,,,,,,,,,,,,,,,,,,,,TEST,001,2023-04-28_13h07.34.427,PGNGS_RST_750_english,2022.2.5,60.023361088339854,
