stimuli_1,correct_resp1,stimuli_2,correct_resp2,stimuli_4,correct_resp4,stimuli_5,correct_resp5,time_3,time_6,PGNGS_B1.thisRepN,PGNGS_B1.thisTrialN,PGNGS_B1.thisN,PGNGS_B1.thisIndex,PGNGS_B2.thisRepN,PGNGS_B2.thisTrialN,PGNGS_B2.thisN,PGNGS_B2.thisIndex,PGNGS_B3.thisRepN,PGNGS_B3.thisTrialN,PGNGS_B3.thisN,PGNGS_B3.thisIndex,PGNGS_B4.thisRepN,PGNGS_B4.thisTrialN,PGNGS_B4.thisN,PGNGS_B4.thisIndex,inst_mov.started,key_resp.started,instruct_i1.started,instruct_i1.stopped,insti_resp.started,instruct_i2.started,inst_t1_1.started,inst_t1_1.stopped,inst_t1_2.started,inst_t1_2.stopped,inst1_resp.started,inst_t1_3.started,crosshair.started,block1_resp.started,block1_stim.started,block1_resp.keys,block1_resp.corr,block1_resp.rt,f1_response.started,fin_1t.started,inst_t2_1.started,inst_t2_1.stopped,inst_t2_2.started,inst_t2_2.stopped,inst_t2_3.started,inst_t2_3.stopped,inst_t2_4.started,inst_t2_4.stopped,inst2_resp.started,inst_t2_5.started,block2_resp.started,block2_stim.started,block2_resp.keys,block2_resp.corr,block2_resp.rt,f2_resp.started,fin_2t.started,inst_t4_1.started,inst_t4_1.stopped,inst_t4_2.started,inst_t4_2.stopped,inst4_resp.started,inst_t4_3.started,block4_resp.started,block4_stim.started,block4_resp.keys,block4_resp.corr,block4_resp.rt,f4_resp.started,fin_4t.started,inst_t5_1.started,inst_t5_1.stopped,inst_t5_2.started,inst_t5_2.stopped,inst5_resp.started,inst_t5_3.started,block5_resp.started,block5_stim.started,block5_resp.keys,block5_resp.corr,block5_resp.rt,f5_resp.started,fin_5t.started,participant,session,date,expName,psychopyVersion,frameRate,
L_b.bmp,None,L_n.bmp,None,L_m.bmp,None,L_v.bmp,None,0.75,0.75,0,0,0,0,,,,,,,,,,,,,14.580299916968215,14.580299916968215,23.002254083985463,31.004536167019978,31.08467599999858,31.08467599999858,31.662143249996006,43.6669827089645,43.76091658399673,51.777076291968115,51.8562728340039,51.8562728340039,55.07394283398753,56.17702529201051,56.17702529201051,None,1,,,,,,,,,,,,,,,,,,,,,,,,,,,,,,,,,,,,,,,,,,,,,,,test,001,2023-04-21_14h46.52.580,PGNGS_RST_750_english,2022.2.5,89.08649538101517,
L_k.bmp,None,L_q.bmp,None,L_b.bmp,None,L_c.bmp,None,0.75,0.75,0,1,1,1,,,,,,,,,,,,,,,,,,,,,,,,,,56.83570429199608,56.83570429199608,None,1,,,,,,,,,,,,,,,,,,,,,,,,,,,,,,,,,,,,,,,,,,,,,,,test,001,2023-04-21_14h46.52.580,PGNGS_RST_750_english,2022.2.5,89.08649538101517,
L_s.bmp,n,L_f.bmp,None,L_s.bmp,n,L_j.bmp,None,0.75,0.75,0,2,2,2,,,,,,,,,,,,,,,,,,,,,,,,,,57.57836662500631,57.57836662500631,None,0,,,,,,,,,,,,,,,,,,,,,,,,,,,,,,,,,,,,,,,,,,,,,,,test,001,2023-04-21_14h46.52.580,PGNGS_RST_750_english,2022.2.5,89.08649538101517,
L_g.bmp,None,L_r.bmp,n,L_b.bmp,None,L_k.bmp,None,0.75,0.75,0,3,3,3,,,,,,,,,,,,,,,,,,,,,,,,,,58.33754662499996,58.33754662499996,None,1,,,,,,,,,,,,,,,,,,,,,,,,,,,,,,,,,,,,,,,,,,,,,,,test,001,2023-04-21_14h46.52.580,PGNGS_RST_750_english,2022.2.5,89.08649538101517,
L_j.bmp,None,L_p.bmp,None,L_d.bmp,None,L_w.bmp,None,0.75,0.75,0,4,4,4,,,,,,,,,,,,,,,,,,,,,,,,,,59.08862108399626,59.08862108399626,None,1,,,,,,,,,,,,,,,,,,,,,,,,,,,,,,,,,,,,,,,,,,,,,,,test,001,2023-04-21_14h46.52.580,PGNGS_RST_750_english,2022.2.5,89.08649538101517,
L_b.bmp,None,L_k.bmp,None,L_v.bmp,None,L_t.bmp,n,0.75,0.75,0,5,5,5,,,,,,,,,,,,,,,,,,,,,,,,,,59.82486291701207,59.82486291701207,None,1,,,,,,,,,,,,,,,,,,,,,,,,,,,,,,,,,,,,,,,,,,,,,,,test,001,2023-04-21_14h46.52.580,PGNGS_RST_750_english,2022.2.5,89.08649538101517,
L_r.bmp,n,L_m.bmp,None,L_b.bmp,None,L_f.bmp,None,0.75,0.75,0,6,6,6,,,,,,,,,,,,,,,,,,,,,,,,,,60.58816141699208,60.58816141699208,n,1,0.5199118750169873,,,,,,,,,,,,,,,,,,,,,,,,,,,,,,,,,,,,,,,,,,,,,,test,001,2023-04-21_14h46.52.580,PGNGS_RST_750_english,2022.2.5,89.08649538101517,
L_j.bmp,None,L_f.bmp,None,L_n.bmp,None,L_m.bmp,None,0.75,0.75,0,7,7,7,,,,,,,,,,,,,,,,,,,,,,,,,,61.32908683398273,61.32908683398273,n,0,0.3940201250370592,,,,,,,,,,,,,,,,,,,,,,,,,,,,,,,,,,,,,,,,,,,,,,test,001,2023-04-21_14h46.52.580,PGNGS_RST_750_english,2022.2.5,89.08649538101517,
L_b.bmp,None,L_k.bmp,None,L_c.bmp,None,L_g.bmp,None,0.75,0.75,0,8,8,8,,,,,,,,,,,,,,,,,,,,,,,,,,62.081774916965514,62.081774916965514,n,0,0.4067476249765605,,,,,,,,,,,,,,,,,,,,,,,,,,,,,,,,,,,,,,,,,,,,,,test,001,2023-04-21_14h46.52.580,PGNGS_RST_750_english,2022.2.5,89.08649538101517,
L_n.bmp,None,L_s.bmp,n,L_p.bmp,None,L_l.bmp,None,0.75,0.75,0,9,9,9,,,,,,,,,,,,,,,,,,,,,,,,,,62.83269691700116,62.83269691700116,None,1,,,,,,,,,,,,,,,,,,,,,,,,,,,,,,,,,,,,,,,,,,,,,,,test,001,2023-04-21_14h46.52.580,PGNGS_RST_750_english,2022.2.5,89.08649538101517,
L_l.bmp,None,L_w.bmp,None,L_f.bmp,None,L_w.bmp,None,0.75,0.75,0,10,10,10,,,,,,,,,,,,,,,,,,,,,,,,,,63.582907416974194,63.582907416974194,None,1,,,,,,,,,,,,,,,,,,,,,,,,,,,,,,,,,,,,,,,,,,,,,,,test,001,2023-04-21_14h46.52.580,PGNGS_RST_750_english,2022.2.5,89.08649538101517,
L_j.bmp,None,L_j.bmp,None,L_p.bmp,None,L_h.bmp,None,0.75,0.75,0,11,11,11,,,,,,,,,,,,,,,,,,,,,,,,,,64.33060904196464,64.33060904196464,None,1,,,,,,,,,,,,,,,,,,,,,,,,,,,,,,,,,,,,,,,,,,,,,,,test,001,2023-04-21_14h46.52.580,PGNGS_RST_750_english,2022.2.5,89.08649538101517,
L_h.bmp,None,L_p.bmp,None,L_t.bmp,n,L_w.bmp,None,0.75,0.25,0,12,12,12,,,,,,,,,,,,,,,,,,,,,,,,,,65.08443454199005,65.08443454199005,None,1,,,,,,,,,,,,,,,,,,,,,,,,,,,,,,,,,,,,,,,,,,,,,,,test,001,2023-04-21_14h46.52.580,PGNGS_RST_750_english,2022.2.5,89.08649538101517,
L_r.bmp,n,L_g.bmp,None,L_q.bmp,None,L_g.bmp,None,0.75,0.5,0,13,13,13,,,,,,,,,,,,,,,,,,,,,,,,,,65.8269123340142,65.8269123340142,n,1,0.49997758300742134,,,,,,,,,,,,,,,,,,,,,,,,,,,,,,,,,,,,,,,,,,,,,,test,001,2023-04-21_14h46.52.580,PGNGS_RST_750_english,2022.2.5,89.08649538101517,
L_q.bmp,None,L_q.bmp,None,L_p.bmp,None,L_m.bmp,None,0.75,0.75,0,14,14,14,,,,,,,,,,,,,,,,,,,,,,,,,,66.58392295899102,66.58392295899102,None,1,,,,,,,,,,,,,,,,,,,,,,,,,,,,,,,,,,,,,,,,,,,,,,,test,001,2023-04-21_14h46.52.580,PGNGS_RST_750_english,2022.2.5,89.08649538101517,
L_b.bmp,None,L_w.bmp,None,L_m.bmp,None,L_w.bmp,None,0.75,0.75,0,15,15,15,,,,,,,,,,,,,,,,,,,,,,,,,,67.32840741699329,67.32840741699329,None,1,,,,,,,,,,,,,,,,,,,,,,,,,,,,,,,,,,,,,,,,,,,,,,,test,001,2023-04-21_14h46.52.580,PGNGS_RST_750_english,2022.2.5,89.08649538101517,
L_g.bmp,None,L_s.bmp,None,L_s.bmp,n,L_h.bmp,None,0.25,0.75,0,16,16,16,,,,,,,,,,,,,,,,,,,,,,,,,,68.08786299999338,68.08786299999338,None,1,,,,,,,,,,,,,,,,,,,,,,,,,,,,,,,,,,,,,,,,,,,,,,,test,001,2023-04-21_14h46.52.580,PGNGS_RST_750_english,2022.2.5,89.08649538101517,
L_r.bmp,n,L_f.bmp,None,L_h.bmp,None,L_r.bmp,n,0.5,0.75,0,17,17,17,,,,,,,,,,,,,,,,,,,,,,,,,,68.83135266700992,68.83135266700992,n,1,0.4671320830238983,,,,,,,,,,,,,,,,,,,,,,,,,,,,,,,,,,,,,,,,,,,,,,test,001,2023-04-21_14h46.52.580,PGNGS_RST_750_english,2022.2.5,89.08649538101517,
L_f.bmp,None,L_m.bmp,None,L_b.bmp,None,L_j.bmp,None,0.75,0.75,0,18,18,18,,,,,,,,,,,,,,,,,,,,,,,,,,69.58781941700727,69.58781941700727,None,1,,,,,,,,,,,,,,,,,,,,,,,,,,,,,,,,,,,,,,,,,,,,,,,test,001,2023-04-21_14h46.52.580,PGNGS_RST_750_english,2022.2.5,89.08649538101517,
L_g.bmp,None,L_j.bmp,None,L_m.bmp,None,L_k.bmp,None,0.75,0.75,0,19,19,19,,,,,,,,,,,,,,,,,,,,,,,,,,70.32901791698532,70.32901791698532,None,1,,,,,,,,,,,,,,,,,,,,,,,,,,,,,,,,,,,,,,,,,,,,,,,test,001,2023-04-21_14h46.52.580,PGNGS_RST_750_english,2022.2.5,89.08649538101517,
L_v.bmp,None,L_k.bmp,None,L_s.bmp,n,L_r.bmp,None,0.75,0.75,0,20,20,20,,,,,,,,,,,,,,,,,,,,,,,,,,,,None,1,,,,,,,,,,,,,,,,,,,,,,,,,,,,,,,,,,,,,,,,,,,,,,,test,001,2023-04-21_14h46.52.580,PGNGS_RST_750_english,2022.2.5,89.08649538101517,
L_f.bmp,None,L_r.bmp,n,L_q.bmp,None,L_k.bmp,None,0.75,0.75,0,21,21,21,,,,,,,,,,,,,,,,,,,,,,,,,,71.98464983399026,71.98464983399026,None,1,,,,,,,,,,,,,,,,,,,,,,,,,,,,,,,,,,,,,,,,,,,,,,,test,001,2023-04-21_14h46.52.580,PGNGS_RST_750_english,2022.2.5,89.08649538101517,
L_g.bmp,None,L_k.bmp,None,L_v.bmp,None,L_f.bmp,None,0.75,0.75,0,22,22,22,,,,,,,,,,,,,,,,,,,,,,,,,,72.58566895901458,72.58566895901458,None,1,,,,,,,,,,,,,,,,,,,,,,,,,,,,,,,,,,,,,,,,,,,,,,,test,001,2023-04-21_14h46.52.580,PGNGS_RST_750_english,2022.2.5,89.08649538101517,
L_h.bmp,None,L_f.bmp,None,L_l.bmp,None,L_l.bmp,None,0.75,0.75,0,23,23,23,,,,,,,,,,,,,,,,,,,,,,,,,,73.33605820900993,73.33605820900993,None,1,,,,,,,,,,,,,,,,,,,,,,,,,,,,,,,,,,,,,,,,,,,,,,,test,001,2023-04-21_14h46.52.580,PGNGS_RST_750_english,2022.2.5,89.08649538101517,
L_b.bmp,None,L_l.bmp,None,L_s.bmp,n,L_f.bmp,None,0.75,0.75,0,24,24,24,,,,,,,,,,,,,,,,,,,,,,,,,,74.08654749998823,74.08654749998823,None,1,,,,,,,,,,,,,,,,,,,,,,,,,,,,,,,,,,,,,,,,,,,,,,,test,001,2023-04-21_14h46.52.580,PGNGS_RST_750_english,2022.2.5,89.08649538101517,
L_v.bmp,None,L_s.bmp,n,L_j.bmp,None,L_r.bmp,None,0.75,0.75,0,25,25,25,,,,,,,,,,,,,,,,,,,,,,,,,,74.8296942919842,74.8296942919842,None,1,,,,,,,,,,,,,,,,,,,,,,,,,,,,,,,,,,,,,,,,,,,,,,,test,001,2023-04-21_14h46.52.580,PGNGS_RST_750_english,2022.2.5,89.08649538101517,
L_c.bmp,None,L_n.bmp,None,L_g.bmp,None,L_n.bmp,None,0.75,0.75,0,26,26,26,,,,,,,,,,,,,,,,,,,,,,,,,,75.58249641698785,75.58249641698785,None,1,,,,,,,,,,,,,,,,,,,,,,,,,,,,,,,,,,,,,,,,,,,,,,,test,001,2023-04-21_14h46.52.580,PGNGS_RST_750_english,2022.2.5,89.08649538101517,
L_l.bmp,None,L_d.bmp,None,L_f.bmp,None,L_d.bmp,None,0.75,0.4,0,27,27,27,,,,,,,,,,,,,,,,,,,,,,,,,,76.33539320901036,76.33539320901036,None,1,,,,,,,,,,,,,,,,,,,,,,,,,,,,,,,,,,,,,,,,,,,,,,,test,001,2023-04-21_14h46.52.580,PGNGS_RST_750_english,2022.2.5,89.08649538101517,
L_m.bmp,None,L_r.bmp,n,L_t.bmp,n,L_s.bmp,n,0.75,0.35,0,28,28,28,,,,,,,,,,,,,,,,,,,,,,,,,,77.07855749997543,77.07855749997543,None,1,,,,,,,,,,,,,,,,,,,,,,,,,,,,,,,,,,,,,,,,,,,,,,,test,001,2023-04-21_14h46.52.580,PGNGS_RST_750_english,2022.2.5,89.08649538101517,
L_n.bmp,None,L_v.bmp,None,L_d.bmp,None,L_v.bmp,None,0.75,0.75,0,29,29,29,,,,,,,,,,,,,,,,,,,,,,,,,,77.8366255419678,77.8366255419678,n,0,0.611443749978207,,,,,,,,,,,,,,,,,,,,,,,,,,,,,,,,,,,,,,,,,,,,,,test,001,2023-04-21_14h46.52.580,PGNGS_RST_750_english,2022.2.5,89.08649538101517,
L_p.bmp,None,L_f.bmp,None,L_c.bmp,None,L_f.bmp,None,0.75,0.75,0,30,30,30,,,,,,,,,,,,,,,,,,,,,,,,,,78.58570566697745,78.58570566697745,None,1,,,,,,,,,,,,,,,,,,,,,,,,,,,,,,,,,,,,,,,,,,,,,,,test,001,2023-04-21_14h46.52.580,PGNGS_RST_750_english,2022.2.5,89.08649538101517,
L_v.bmp,None,L_w.bmp,None,L_n.bmp,None,L_w.bmp,None,0.75,0.75,0,31,31,31,,,,,,,,,,,,,,,,,,,,,,,,,,79.33269404200837,79.33269404200837,None,1,,,,,,,,,,,,,,,,,,,,,,,,,,,,,,,,,,,,,,,,,,,,,,,test,001,2023-04-21_14h46.52.580,PGNGS_RST_750_english,2022.2.5,89.08649538101517,
L_p.bmp,None,L_q.bmp,None,L_h.bmp,None,L_q.bmp,None,0.75,0.75,0,32,32,32,,,,,,,,,,,,,,,,,,,,,,,,,,80.08018429199001,80.08018429199001,None,1,,,,,,,,,,,,,,,,,,,,,,,,,,,,,,,,,,,,,,,,,,,,,,,test,001,2023-04-21_14h46.52.580,PGNGS_RST_750_english,2022.2.5,89.08649538101517,
L_l.bmp,None,L_k.bmp,None,L_g.bmp,None,L_k.bmp,None,0.75,0.75,0,33,33,33,,,,,,,,,,,,,,,,,,,,,,,,,,80.83723025000654,80.83723025000654,None,1,,,,,,,,,,,,,,,,,,,,,,,,,,,,,,,,,,,,,,,,,,,,,,,test,001,2023-04-21_14h46.52.580,PGNGS_RST_750_english,2022.2.5,89.08649538101517,
L_r.bmp,n,L_b.bmp,None,L_l.bmp,None,L_b.bmp,None,0.75,0.75,0,34,34,34,,,,,,,,,,,,,,,,,,,,,,,,,,81.57516950002173,81.57516950002173,n,1,0.5628503750194795,,,,,,,,,,,,,,,,,,,,,,,,,,,,,,,,,,,,,,,,,,,,,,test,001,2023-04-21_14h46.52.580,PGNGS_RST_750_english,2022.2.5,89.08649538101517,
L_q.bmp,None,L_j.bmp,None,L_b.bmp,None,L_j.bmp,None,0.75,0.75,0,35,35,35,,,,,,,,,,,,,,,,,,,,,,,,,,82.33792283397634,82.33792283397634,None,1,,,,,,,,,,,,,,,,,,,,,,,,,,,,,,,,,,,,,,,,,,,,,,,test,001,2023-04-21_14h46.52.580,PGNGS_RST_750_english,2022.2.5,89.08649538101517,
L_g.bmp,None,L_k.bmp,None,L_t.bmp,n,L_l.bmp,None,0.75,0.3,0,36,36,36,,,,,,,,,,,,,,,,,,,,,,,,,,83.08018874999834,83.08018874999834,None,1,,,,,,,,,,,,,,,,,,,,,,,,,,,,,,,,,,,,,,,,,,,,,,,test,001,2023-04-21_14h46.52.580,PGNGS_RST_750_english,2022.2.5,89.08649538101517,
L_r.bmp,n,L_b.bmp,None,L_k.bmp,None,L_b.bmp,None,0.75,0.45,0,37,37,37,,,,,,,,,,,,,,,,,,,,,,,,,,83.83512454200536,83.83512454200536,n,1,0.4957455829717219,,,,,,,,,,,,,,,,,,,,,,,,,,,,,,,,,,,,,,,,,,,,,,test,001,2023-04-21_14h46.52.580,PGNGS_RST_750_english,2022.2.5,89.08649538101517,
L_b.bmp,None,L_r.bmp,None,L_j.bmp,None,L_t.bmp,n,0.75,0.75,0,38,38,38,,,,,,,,,,,,,,,,,,,,,,,,,,84.58141475002049,84.58141475002049,None,1,,,,,,,,,,,,,,,,,,,,,,,,,,,,,,,,,,,,,,,,,,,,,,,test,001,2023-04-21_14h46.52.580,PGNGS_RST_750_english,2022.2.5,89.08649538101517,
L_j.bmp,None,L_q.bmp,None,L_f.bmp,None,L_q.bmp,None,0.4,0.75,0,39,39,39,,,,,,,,,,,,,,,,,,,,,,,,,,85.33178062498337,85.33178062498337,None,1,,,,,,,,,,,,,,,,,,,,,,,,,,,,,,,,,,,,,,,,,,,,,,,test,001,2023-04-21_14h46.52.580,PGNGS_RST_750_english,2022.2.5,89.08649538101517,
L_g.bmp,None,L_m.bmp,None,L_g.bmp,None,L_m.bmp,None,0.35,0.75,0,40,40,40,,,,,,,,,,,,,,,,,,,,,,,,,,86.08452670898987,86.08452670898987,None,1,,,,,,,,,,,,,,,,,,,,,,,,,,,,,,,,,,,,,,,,,,,,,,,test,001,2023-04-21_14h46.52.580,PGNGS_RST_750_english,2022.2.5,89.08649538101517,
L_s.bmp,n,L_q.bmp,None,L_h.bmp,None,L_q.bmp,None,0.75,0.75,0,41,41,41,,,,,,,,,,,,,,,,,,,,,,,,,,86.83623104199069,86.83623104199069,n,1,0.4315579999820329,,,,,,,,,,,,,,,,,,,,,,,,,,,,,,,,,,,,,,,,,,,,,,test,001,2023-04-21_14h46.52.580,PGNGS_RST_750_english,2022.2.5,89.08649538101517,
L_v.bmp,None,L_f.bmp,None,L_b.bmp,None,L_j.bmp,None,0.75,0.75,0,42,42,42,,,,,,,,,,,,,,,,,,,,,,,,,,87.5748806669726,87.5748806669726,None,1,,,,,,,,,,,,,,,,,,,,,,,,,,,,,,,,,,,,,,,,,,,,,,,test,001,2023-04-21_14h46.52.580,PGNGS_RST_750_english,2022.2.5,89.08649538101517,
L_m.bmp,None,L_j.bmp,None,L_v.bmp,None,L_m.bmp,None,0.75,0.75,0,43,43,43,,,,,,,,,,,,,,,,,,,,,,,,,,88.32995204196777,88.32995204196777,None,1,,,,,,,,,,,,,,,,,,,,,,,,,,,,,,,,,,,,,,,,,,,,,,,test,001,2023-04-21_14h46.52.580,PGNGS_RST_750_english,2022.2.5,89.08649538101517,
L_b.bmp,None,L_m.bmp,None,L_b.bmp,None,L_b.bmp,None,0.75,0.75,0,44,44,44,,,,,,,,,,,,,,,,,,,,,,,,,,89.07506470900262,89.07506470900262,None,1,,,,,,,,,,,,,,,,,,,,,,,,,,,,,,,,,,,,,,,,,,,,,,,test,001,2023-04-21_14h46.52.580,PGNGS_RST_750_english,2022.2.5,89.08649538101517,
L_s.bmp,n,L_b.bmp,None,L_r.bmp,n,L_m.bmp,None,0.75,0.75,0,45,45,45,,,,,,,,,,,,,,,,,,,,,,,,,,89.82794895902043,89.82794895902043,n,1,0.4125837499741465,,,,,,,,,,,,,,,,,,,,,,,,,,,,,,,,,,,,,,,,,,,,,,test,001,2023-04-21_14h46.52.580,PGNGS_RST_750_english,2022.2.5,89.08649538101517,
L_b.bmp,None,L_j.bmp,None,L_b.bmp,None,L_d.bmp,None,0.75,0.75,0,46,46,46,,,,,,,,,,,,,,,,,,,,,,,,,,90.5777356249746,90.5777356249746,None,1,,,,,,,,,,,,,,,,,,,,,,,,,,,,,,,,,,,,,,,,,,,,,,,test,001,2023-04-21_14h46.52.580,PGNGS_RST_750_english,2022.2.5,89.08649538101517,
L_d.bmp,None,L_m.bmp,None,L_n.bmp,None,L_n.bmp,None,0.75,0.75,0,47,47,47,,,,,,,,,,,,,,,,,,,,,,,,,,91.33729141700314,91.33729141700314,None,1,,,,,,,,,,,,,,,,,,,,,,,,,,,,,,,,,,,,,,,,,,,,,,,test,001,2023-04-21_14h46.52.580,PGNGS_RST_750_english,2022.2.5,89.08649538101517,
L_v.bmp,None,L_n.bmp,None,L_l.bmp,None,L_l.bmp,None,0.75,0.75,0,48,48,48,,,,,,,,,,,,,,,,,,,,,,,,,,92.07905041699996,92.07905041699996,None,1,,,,,,,,,,,,,,,,,,,,,,,,,,,,,,,,,,,,,,,,,,,,,,,test,001,2023-04-21_14h46.52.580,PGNGS_RST_750_english,2022.2.5,89.08649538101517,
L_b.bmp,None,L_f.bmp,None,L_j.bmp,None,L_j.bmp,None,0.75,0.75,0,49,49,49,,,,,,,,,,,,,,,,,,,,,,,,,,92.83434133400442,92.83434133400442,None,1,,,,,,,,,,,,,,,,,,,,,,,,,,,,,,,,,,,,,,,,,,,,,,,test,001,2023-04-21_14h46.52.580,PGNGS_RST_750_english,2022.2.5,89.08649538101517,
L_n.bmp,None,L_m.bmp,None,L_h.bmp,None,L_h.bmp,None,0.75,0.75,0,50,50,50,,,,,,,,,,,,,,,,,,,,,,,,,,93.5788548340206,93.5788548340206,None,1,,,,,,,,,,,,,,,,,,,,,,,,,,,,,,,,,,,,,,,,,,,,,,,test,001,2023-04-21_14h46.52.580,PGNGS_RST_750_english,2022.2.5,89.08649538101517,
L_c.bmp,None,L_p.bmp,None,L_t.bmp,n,L_s.bmp,n,0.75,0.75,0,51,51,51,,,,,,,,,,,,,,,,,,,,,,,,,,94.33074050000869,94.33074050000869,n,0,0.046112417010590434,,,,,,,,,,,,,,,,,,,,,,,,,,,,,,,,,,,,,,,,,,,,,,test,001,2023-04-21_14h46.52.580,PGNGS_RST_750_english,2022.2.5,89.08649538101517,
L_p.bmp,None,L_l.bmp,None,L_q.bmp,None,L_q.bmp,None,0.75,0.75,0,52,52,52,,,,,,,,,,,,,,,,,,,,,,,,,,95.07869554200443,95.07869554200443,None,1,,,,,,,,,,,,,,,,,,,,,,,,,,,,,,,,,,,,,,,,,,,,,,,test,001,2023-04-21_14h46.52.580,PGNGS_RST_750_english,2022.2.5,89.08649538101517,
L_f.bmp,None,L_h.bmp,None,L_b.bmp,None,L_b.bmp,None,0.75,0.75,0,53,53,53,,,,,,,,,,,,,,,,,,,,,,,,,,95.83045383397257,95.83045383397257,None,1,,,,,,,,,,,,,,,,,,,,,,,,,,,,,,,,,,,,,,,,,,,,,,,test,001,2023-04-21_14h46.52.580,PGNGS_RST_750_english,2022.2.5,89.08649538101517,
L_p.bmp,None,L_s.bmp,n,L_g.bmp,None,L_g.bmp,None,0.75,0.75,0,54,54,54,,,,,,,,,,,,,,,,,,,,,,,,,,96.57976941700326,96.57976941700326,None,1,,,,,,,,,,,,,,,,,,,,,,,,,,,,,,,,,,,,,,,,,,,,,,,test,001,2023-04-21_14h46.52.580,PGNGS_RST_750_english,2022.2.5,89.08649538101517,
L_r.bmp,n,L_v.bmp,None,L_t.bmp,n,L_t.bmp,n,0.75,0.75,0,55,55,55,,,,,,,,,,,,,,,,,,,,,,,,,,97.33306749997428,97.33306749997428,n,1,0.4984389999881387,,,,,,,,,,,,,,,,,,,,,,,,,,,,,,,,,,,,,,,,,,,,,,test,001,2023-04-21_14h46.52.580,PGNGS_RST_750_english,2022.2.5,89.08649538101517,
L_q.bmp,None,L_h.bmp,None,L_g.bmp,None,L_g.bmp,None,0.75,0.75,0,56,56,56,,,,,,,,,,,,,,,,,,,,,,,,,,98.07479562499793,98.07479562499793,None,1,,,,,,,,,,,,,,,,,,,,,,,,,,,,,,,,,,,,,,,,,,,,,,,test,001,2023-04-21_14h46.52.580,PGNGS_RST_750_english,2022.2.5,89.08649538101517,
L_f.bmp,None,L_k.bmp,None,L_k.bmp,None,L_l.bmp,None,0.75,0.75,0,57,57,57,,,,,,,,,,,,,,,,,,,,,,,,,,98.83523537497967,98.83523537497967,None,1,,,,,,,,,,,,,,,,,,,,,,,,,,,,,,,,,,,,,,,,,,,,,,,test,001,2023-04-21_14h46.52.580,PGNGS_RST_750_english,2022.2.5,89.08649538101517,
L_s.bmp,n,L_r.bmp,n,L_f.bmp,None,L_r.bmp,n,0.75,0.75,0,58,58,58,,,,,,,,,,,,,,,,,,,,,,,,,,99.58723516698228,99.58723516698228,None,0,,,,,,,,,,,,,,,,,,,,,,,,,,,,,,,,,,,,,,,,,,,,,,,test,001,2023-04-21_14h46.52.580,PGNGS_RST_750_english,2022.2.5,89.08649538101517,
L_m.bmp,None,L_q.bmp,None,L_l.bmp,None,L_f.bmp,None,0.75,0.75,0,59,59,59,,,,,,,,,,,,,,,,,,,,,,,,,,100.32945320900762,100.32945320900762,n,0,0.07922679098555818,,,,,,,,,,,,,,,,,,,,,,,,,,,,,,,,,,,,,,,,,,,,,,test,001,2023-04-21_14h46.52.580,PGNGS_RST_750_english,2022.2.5,89.08649538101517,
L_h.bmp,None,L_d.bmp,None,L_r.bmp,n,L_k.bmp,None,0.75,0.75,0,60,60,60,,,,,,,,,,,,,,,,,,,,,,,,,,101.08077887498075,101.08077887498075,None,1,,,,,,,,,,,,,,,,,,,,,,,,,,,,,,,,,,,,,,,,,,,,,,,test,001,2023-04-21_14h46.52.580,PGNGS_RST_750_english,2022.2.5,89.08649538101517,
L_b.bmp,None,L_m.bmp,None,L_v.bmp,None,L_v.bmp,None,0.3,0.75,0,61,61,61,,,,,,,,,,,,,,,,,,,,,,,,,,101.83618466701591,101.83618466701591,None,1,,,,,,,,,,,,,,,,,,,,,,,,,,,,,,,,,,,,,,,,,,,,,,,test,001,2023-04-21_14h46.52.580,PGNGS_RST_750_english,2022.2.5,89.08649538101517,
L_m.bmp,None,L_j.bmp,None,L_c.bmp,None,L_c.bmp,None,0.45,0.75,0,62,62,62,,,,,,,,,,,,,,,,,,,,,,,,,,102.57959329197183,102.57959329197183,None,1,,,,,,,,,,,,,,,,,,,,,,,,,,,,,,,,,,,,,,,,,,,,,,,test,001,2023-04-21_14h46.52.580,PGNGS_RST_750_english,2022.2.5,89.08649538101517,
L_q.bmp,None,L_f.bmp,None,L_l.bmp,None,L_l.bmp,None,0.75,0.4,0,63,63,63,,,,,,,,,,,,,,,,,,,,,,,,,,103.33596791699529,103.33596791699529,None,1,,,,,,,,,,,,,,,,,,,,,,,,,,,,,,,,,,,,,,,,,,,,,,,test,001,2023-04-21_14h46.52.580,PGNGS_RST_750_english,2022.2.5,89.08649538101517,
L_s.bmp,n,L_d.bmp,None,L_m.bmp,None,L_m.bmp,None,0.75,0.35,0,64,64,64,,,,,,,,,,,,,,,,,,,,,,,,,,104.07700275001116,104.07700275001116,n,1,0.4719000000040978,,,,,,,,,,,,,,,,,,,,,,,,,,,,,,,,,,,,,,,,,,,,,,test,001,2023-04-21_14h46.52.580,PGNGS_RST_750_english,2022.2.5,89.08649538101517,
L_v.bmp,None,L_b.bmp,None,L_n.bmp,None,L_n.bmp,None,0.75,0.75,0,65,65,65,,,,,,,,,,,,,,,,,,,,,,,,,,104.83696174999932,104.83696174999932,None,1,,,,,,,,,,,,,,,,,,,,,,,,,,,,,,,,,,,,,,,,,,,,,,,test,001,2023-04-21_14h46.52.580,PGNGS_RST_750_english,2022.2.5,89.08649538101517,
L_l.bmp,None,L_p.bmp,None,L_r.bmp,n,L_p.bmp,None,0.75,0.75,0,66,66,66,,,,,,,,,,,,,,,,,,,,,,,,,,105.57906304200878,105.57906304200878,None,1,,,,,,,,,,,,,,,,,,,,,,,,,,,,,,,,,,,,,,,,,,,,,,,test,001,2023-04-21_14h46.52.580,PGNGS_RST_750_english,2022.2.5,89.08649538101517,
L_s.bmp,n,L_w.bmp,None,L_f.bmp,None,L_v.bmp,None,0.75,0.75,0,67,67,67,,,,,,,,,,,,,,,,,,,,,,,,,,106.33084316697204,106.33084316697204,n,1,0.49725962500087917,,,,,,,,,,,,,,,,,,,,,,,,,,,,,,,,,,,,,,,,,,,,,,test,001,2023-04-21_14h46.52.580,PGNGS_RST_750_english,2022.2.5,89.08649538101517,
L_j.bmp,None,L_d.bmp,None,L_p.bmp,None,L_p.bmp,None,0.75,0.75,0,68,68,68,,,,,,,,,,,,,,,,,,,,,,,,,,107.07907304196851,107.07907304196851,None,1,,,,,,,,,,,,,,,,,,,,,,,,,,,,,,,,,,,,,,,,,,,,,,,test,001,2023-04-21_14h46.52.580,PGNGS_RST_750_english,2022.2.5,89.08649538101517,
L_g.bmp,None,L_f.bmp,None,L_l.bmp,None,L_l.bmp,None,0.75,0.75,0,69,69,69,,,,,,,,,,,,,,,,,,,,,,,,,,107.82612645899644,107.82612645899644,None,1,,,,,,,,,,,,,,,,,,,,,,,,,,,,,,,,,,,,,,,,,,,,,,,test,001,2023-04-21_14h46.52.580,PGNGS_RST_750_english,2022.2.5,89.08649538101517,
L_f.bmp,None,L_r.bmp,None,L_r.bmp,n,L_r.bmp,None,0.75,0.75,0,70,70,70,,,,,,,,,,,,,,,,,,,,,,,,,,108.57637579197763,108.57637579197763,None,1,,,,,,,,,,,,,,,,,,,,,,,,,,,,,,,,,,,,,,,,,,,,,,,test,001,2023-04-21_14h46.52.580,PGNGS_RST_750_english,2022.2.5,89.08649538101517,
L_d.bmp,None,L_p.bmp,None,L_q.bmp,None,L_q.bmp,None,0.75,0.75,0,71,71,71,,,,,,,,,,,,,,,,,,,,,,,,,,109.33551637496566,109.33551637496566,None,1,,,,,,,,,,,,,,,,,,,,,,,,,,,,,,,,,,,,,,,,,,,,,,,test,001,2023-04-21_14h46.52.580,PGNGS_RST_750_english,2022.2.5,89.08649538101517,
L_r.bmp,n,L_d.bmp,None,L_g.bmp,None,L_f.bmp,None,0.75,0.75,0,72,72,72,,,,,,,,,,,,,,,,,,,,,,,,,,110.07350200001383,110.07350200001383,n,1,0.5944412499666214,,,,,,,,,,,,,,,,,,,,,,,,,,,,,,,,,,,,,,,,,,,,,,test,001,2023-04-21_14h46.52.580,PGNGS_RST_750_english,2022.2.5,89.08649538101517,
L_c.bmp,None,L_l.bmp,None,L_r.bmp,n,L_m.bmp,None,0.75,0.75,0,73,73,73,,,,,,,,,,,,,,,,,,,,,,,,,,110.82671624998329,110.82671624998329,None,1,,,,,,,,,,,,,,,,,,,,,,,,,,,,,,,,,,,,,,,,,,,,,,,test,001,2023-04-21_14h46.52.580,PGNGS_RST_750_english,2022.2.5,89.08649538101517,
L_n.bmp,None,L_h.bmp,None,L_b.bmp,None,L_p.bmp,None,0.75,0.75,0,74,74,74,,,,,,,,,,,,,,,,,,,,,,,,,,111.58436774997972,111.58436774997972,None,1,,,,,,,,,,,,,,,,,,,,,,,,,,,,,,,,,,,,,,,,,,,,,,,test,001,2023-04-21_14h46.52.580,PGNGS_RST_750_english,2022.2.5,89.08649538101517,
L_h.bmp,None,L_l.bmp,None,L_j.bmp,None,L_l.bmp,None,0.75,0.75,0,75,75,75,,,,,,,,,,,,,,,,,,,,,,,,,,112.33517087501241,112.33517087501241,None,1,,,,,,,,,,,,,,,,,,,,,,,,,,,,,,,,,,,,,,,,,,,,,,,test,001,2023-04-21_14h46.52.580,PGNGS_RST_750_english,2022.2.5,89.08649538101517,
L_g.bmp,None,L_m.bmp,None,L_g.bmp,None,L_h.bmp,None,0.75,0.75,0,76,76,76,,,,,,,,,,,,,,,,,,,,,,,,,,113.07765275001293,113.07765275001293,None,1,,,,,,,,,,,,,,,,,,,,,,,,,,,,,,,,,,,,,,,,,,,,,,,test,001,2023-04-21_14h46.52.580,PGNGS_RST_750_english,2022.2.5,89.08649538101517,
L_l.bmp,None,L_j.bmp,None,L_v.bmp,None,L_s.bmp,n,0.75,0.75,0,77,77,77,,,,,,,,,,,,,,,,,,,,,,,,,,113.83438920899061,113.83438920899061,None,1,,,,,,,,,,,,,,,,,,,,,,,,,,,,,,,,,,,,,,,,,,,,,,,test,001,2023-04-21_14h46.52.580,PGNGS_RST_750_english,2022.2.5,89.08649538101517,
L_s.bmp,n,L_p.bmp,None,L_s.bmp,n,L_v.bmp,None,0.75,0.75,0,78,78,78,,,,,,,,,,,,,,,,,,,,,,,,,,114.58168941701297,114.58168941701297,n,1,0.40645050001330674,,,,,,,,,,,,,,,,,,,,,,,,,,,,,,,,,,,,,,,,,,,,,,test,001,2023-04-21_14h46.52.580,PGNGS_RST_750_english,2022.2.5,89.08649538101517,
L_f.bmp,None,L_b.bmp,None,L_b.bmp,None,L_p.bmp,None,0.75,0.75,0,79,79,79,,,,,,,,,,,,,,,,,,,,,,,,,,115.33430591697106,115.33430591697106,None,1,,,,,,,,,,,,,,,,,,,,,,,,,,,,,,,,,,,,,,,,,,,,,,,test,001,2023-04-21_14h46.52.580,PGNGS_RST_750_english,2022.2.5,89.08649538101517,
L_n.bmp,None,L_f.bmp,None,L_v.bmp,None,L_d.bmp,None,0.75,0.75,0,80,80,80,,,,,,,,,,,,,,,,,,,,,,,,,,116.07815958396532,116.07815958396532,n,0,0.6202508339774795,,,,,,,,,,,,,,,,,,,,,,,,,,,,,,,,,,,,,,,,,,,,,,test,001,2023-04-21_14h46.52.580,PGNGS_RST_750_english,2022.2.5,89.08649538101517,
L_w.bmp,None,L_s.bmp,n,L_h.bmp,None,L_s.bmp,None,0.75,0.75,0,81,81,81,,,,,,,,,,,,,,,,,,,,,,,,,,,,None,1,,,,,,,,,,,,,,,,,,,,,,,,,,,,,,,,,,,,,,,,,,,,,,,test,001,2023-04-21_14h46.52.580,PGNGS_RST_750_english,2022.2.5,89.08649538101517,
L_b.bmp,None,L_l.bmp,None,L_w.bmp,None,L_j.bmp,None,0.75,0.75,0,82,82,82,,,,,,,,,,,,,,,,,,,,,,,,,,117.7195176249952,117.7195176249952,None,1,,,,,,,,,,,,,,,,,,,,,,,,,,,,,,,,,,,,,,,,,,,,,,,test,001,2023-04-21_14h46.52.580,PGNGS_RST_750_english,2022.2.5,89.08649538101517,
L_v.bmp,None,L_j.bmp,None,L_m.bmp,None,L_d.bmp,None,0.75,0.75,0,83,83,83,,,,,,,,,,,,,,,,,,,,,,,,,,118.33524245896842,118.33524245896842,None,1,,,,,,,,,,,,,,,,,,,,,,,,,,,,,,,,,,,,,,,,,,,,,,,test,001,2023-04-21_14h46.52.580,PGNGS_RST_750_english,2022.2.5,89.08649538101517,
L_s.bmp,n,L_r.bmp,n,L_j.bmp,None,L_b.bmp,None,0.4,0.75,0,84,84,84,,,,,,,,,,,,,,,,,,,,,,,,,,119.07854600000428,119.07854600000428,n,1,0.680992082983721,,,,,,,,,,,,,,,,,,,,,,,,,,,,,,,,,,,,,,,,,,,,,,test,001,2023-04-21_14h46.52.580,PGNGS_RST_750_english,2022.2.5,89.08649538101517,
L_q.bmp,None,L_m.bmp,None,L_m.bmp,None,L_t.bmp,n,0.35,0.75,0,85,85,85,,,,,,,,,,,,,,,,,,,,,,,,,,119.82934620900778,119.82934620900778,None,1,,,,,,,,,,,,,,,,,,,,,,,,,,,,,,,,,,,,,,,,,,,,,,,test,001,2023-04-21_14h46.52.580,PGNGS_RST_750_english,2022.2.5,89.08649538101517,
L_d.bmp,None,L_v.bmp,None,L_g.bmp,None,L_q.bmp,None,0.75,0.75,0,86,86,86,,,,,,,,,,,,,,,,,,,,,,,,,,120.5816237090039,120.5816237090039,None,1,,,,,,,,,,,,,,,,,,,,,,,,,,,,,,,,,,,,,,,,,,,,,,,test,001,2023-04-21_14h46.52.580,PGNGS_RST_750_english,2022.2.5,89.08649538101517,
L_r.bmp,n,L_d.bmp,None,L_k.bmp,None,L_m.bmp,None,0.75,0.3,0,87,87,87,,,,,,,,,,,,,,,,,,,,,,,,,,121.3302942920127,121.3302942920127,n,1,0.5884400000213645,,,,,,,,,,,,,,,,,,,,,,,,,,,,,,,,,,,,,,,,,,,,,,test,001,2023-04-21_14h46.52.580,PGNGS_RST_750_english,2022.2.5,89.08649538101517,
L_v.bmp,None,L_s.bmp,n,L_b.bmp,None,L_q.bmp,None,0.75,0.45,0,88,88,88,,,,,,,,,,,,,,,,,,,,,,,,,,122.07455445901724,122.07455445901724,None,1,,,,,,,,,,,,,,,,,,,,,,,,,,,,,,,,,,,,,,,,,,,,,,,test,001,2023-04-21_14h46.52.580,PGNGS_RST_750_english,2022.2.5,89.08649538101517,
L_c.bmp,None,L_j.bmp,None,L_r.bmp,n,L_s.bmp,n,0.75,0.75,0,89,89,89,,,,,,,,,,,,,,,,,,,,,,,,,,122.8276872090064,122.8276872090064,None,1,,,,,,,,,,,,,,,,,,,,,,,,,,,,,,,,,,,,,,,,,,,,,,,test,001,2023-04-21_14h46.52.580,PGNGS_RST_750_english,2022.2.5,89.08649538101517,
L_j.bmp,None,L_d.bmp,None,L_n.bmp,None,L_d.bmp,None,0.75,0.75,0,90,90,90,,,,,,,,,,,,,,,,,,,,,,,,,,123.58505958400201,123.58505958400201,None,1,,,,,,,,,,,,,,,,,,,,,,,,,,,,,,,,,,,,,,,,,,,,,,,test,001,2023-04-21_14h46.52.580,PGNGS_RST_750_english,2022.2.5,89.08649538101517,
L_k.bmp,None,L_b.bmp,None,L_q.bmp,None,L_w.bmp,None,0.75,0.75,0,91,91,91,,,,,,,,,,,,,,,,,,,,,,,,,,124.33286774996668,124.33286774996668,None,1,,,,,,,,,,,,,,,,,,,,,,,,,,,,,,,,,,,,,,,,,,,,,,,test,001,2023-04-21_14h46.52.580,PGNGS_RST_750_english,2022.2.5,89.08649538101517,
L_w.bmp,None,L_s.bmp,None,L_f.bmp,None,L_p.bmp,None,0.75,0.75,0,92,92,92,,,,,,,,,,,,,,,,,,,,,,,,,,125.07889091700781,125.07889091700781,None,1,,,,,,,,,,,,,,,,,,,,,,,,,,,,,,,,,,,,,,,,,,,,,,,test,001,2023-04-21_14h46.52.580,PGNGS_RST_750_english,2022.2.5,89.08649538101517,
L_s.bmp,n,L_q.bmp,None,L_t.bmp,n,L_f.bmp,None,0.75,0.75,0,93,93,93,,,,,,,,,,,,,,,,,,,,,,,,,,125.82627062499523,125.82627062499523,n,1,0.4733290410367772,,,,,,,,,,,,,,,,,,,,,,,,,,,,,,,,,,,,,,,,,,,,,,test,001,2023-04-21_14h46.52.580,PGNGS_RST_750_english,2022.2.5,89.08649538101517,
L_f.bmp,None,L_m.bmp,None,L_p.bmp,None,L_s.bmp,None,0.75,0.75,0,94,94,94,,,,,,,,,,,,,,,,,,,,,,,,,,126.57760762498947,126.57760762498947,None,1,,,,,,,,,,,,,,,,,,,,,,,,,,,,,,,,,,,,,,,,,,,,,,,test,001,2023-04-21_14h46.52.580,PGNGS_RST_750_english,2022.2.5,89.08649538101517,
L_m.bmp,None,L_q.bmp,None,L_k.bmp,None,L_w.bmp,None,0.75,0.75,0,95,95,95,,,,,,,,,,,,,,,,,,,,,,,,,,127.32594291697023,127.32594291697023,None,1,,,,,,,,,,,,,,,,,,,,,,,,,,,,,,,,,,,,,,,,,,,,,,,test,001,2023-04-21_14h46.52.580,PGNGS_RST_750_english,2022.2.5,89.08649538101517,
L_g.bmp,None,L_d.bmp,None,L_g.bmp,None,L_m.bmp,None,0.75,0.75,0,96,96,96,,,,,,,,,,,,,,,,,,,,,,,,,,128.08338741702028,128.08338741702028,None,1,,,,,,,,,,,,,,,,,,,,,,,,,,,,,,,,,,,,,,,,,,,,,,,test,001,2023-04-21_14h46.52.580,PGNGS_RST_750_english,2022.2.5,89.08649538101517,
L_l.bmp,None,L_r.bmp,n,L_f.bmp,None,L_t.bmp,n,0.75,0.75,0,97,97,97,,,,,,,,,,,,,,,,,,,,,,,,,,128.83857533399714,128.83857533399714,None,1,,,,,,,,,,,,,,,,,,,,,,,,,,,,,,,,,,,,,,,,,,,,,,,test,001,2023-04-21_14h46.52.580,PGNGS_RST_750_english,2022.2.5,89.08649538101517,
L_w.bmp,None,L_w.bmp,None,L_k.bmp,None,L_p.bmp,None,0.75,0.75,0,98,98,98,,,,,,,,,,,,,,,,,,,,,,,,,,129.58206683397293,129.58206683397293,None,1,,,,,,,,,,,,,,,,,,,,,,,,,,,,,,,,,,,,,,,,,,,,,,,test,001,2023-04-21_14h46.52.580,PGNGS_RST_750_english,2022.2.5,89.08649538101517,
L_h.bmp,None,L_p.bmp,None,L_q.bmp,None,L_d.bmp,None,0.75,0.75,0,99,99,99,,,,,,,,,,,,,,,,,,,,,,,,,,130.333305209002,130.333305209002,None,1,,,,,,,,,,,,,,,,,,,,,,,,,,,,,,,,,,,,,,,,,,,,,,,test,001,2023-04-21_14h46.52.580,PGNGS_RST_750_english,2022.2.5,89.08649538101517,
L_w.bmp,None,L_s.bmp,n,L_w.bmp,None,L_r.bmp,n,0.75,0.75,0,100,100,100,,,,,,,,,,,,,,,,,,,,,,,,,,131.07684870896628,131.07684870896628,None,1,,,,,,,,,,,,,,,,,,,,,,,,,,,,,,,,,,,,,,,,,,,,,,,test,001,2023-04-21_14h46.52.580,PGNGS_RST_750_english,2022.2.5,89.08649538101517,
L_g.bmp,None,L_f.bmp,None,L_j.bmp,None,L_m.bmp,None,0.75,0.75,0,101,101,101,,,,,,,,,,,,,,,,,,,,,,,,,,131.8256270000129,131.8256270000129,None,1,,,,,,,,,,,,,,,,,,,,,,,,,,,,,,,,,,,,,,,,,,,,,,,test,001,2023-04-21_14h46.52.580,PGNGS_RST_750_english,2022.2.5,89.08649538101517,
L_m.bmp,None,L_w.bmp,None,L_p.bmp,None,L_q.bmp,None,0.75,0.75,0,102,102,102,,,,,,,,,,,,,,,,,,,,,,,,,,132.58066820900422,132.58066820900422,None,1,,,,,,,,,,,,,,,,,,,,,,,,,,,,,,,,,,,,,,,,,,,,,,,test,001,2023-04-21_14h46.52.580,PGNGS_RST_750_english,2022.2.5,89.08649538101517,
L_w.bmp,None,L_m.bmp,None,L_g.bmp,None,L_k.bmp,None,0.75,0.75,0,103,103,103,,,,,,,,,,,,,,,,,,,,,,,,,,133.32922574999975,133.32922574999975,None,1,,,,,,,,,,,,,,,,,,,,,,,,,,,,,,,,,,,,,,,,,,,,,,,test,001,2023-04-21_14h46.52.580,PGNGS_RST_750_english,2022.2.5,89.08649538101517,
L_h.bmp,None,L_r.bmp,n,L_q.bmp,None,L_t.bmp,n,0.75,0.75,0,104,104,104,,,,,,,,,,,,,,,,,,,,,,,,,,134.07910770899616,134.07910770899616,None,1,,,,,,,,,,,,,,,,,,,,,,,,,,,,,,,,,,,,,,,,,,,,,,,test,001,2023-04-21_14h46.52.580,PGNGS_RST_750_english,2022.2.5,89.08649538101517,
L_r.bmp,n,L_p.bmp,None,L_w.bmp,None,L_b.bmp,None,0.75,0.75,0,105,105,105,,,,,,,,,,,,,,,,,,,,,,,,,,134.83565675001591,134.83565675001591,n,1,0.5234600830008276,,,,,,,,,,,,,,,,,,,,,,,,,,,,,,,,,,,,,,,,,,,,,,test,001,2023-04-21_14h46.52.580,PGNGS_RST_750_english,2022.2.5,89.08649538101517,
L_b.bmp,None,L_d.bmp,None,L_d.bmp,None,L_m.bmp,None,0.75,0.75,0,106,106,106,,,,,,,,,,,,,,,,,,,,,,,,,,135.58115416701185,135.58115416701185,None,1,,,,,,,,,,,,,,,,,,,,,,,,,,,,,,,,,,,,,,,,,,,,,,,test,001,2023-04-21_14h46.52.580,PGNGS_RST_750_english,2022.2.5,89.08649538101517,
L_v.bmp,None,L_c.bmp,None,L_f.bmp,None,L_g.bmp,None,0.75,0.75,0,107,107,107,,,,,,,,,,,,,,,,,,,,,,,,,,136.33109441702254,136.33109441702254,None,1,,,,,,,,,,,,,,,,,,,,,,,,,,,,,,,,,,,,,,,,,,,,,,,test,001,2023-04-21_14h46.52.580,PGNGS_RST_750_english,2022.2.5,89.08649538101517,
L_h.bmp,None,L_s.bmp,n,L_s.bmp,n,L_t.bmp,None,0.3,0.75,0,108,108,108,,,,,,,,,,,,,,,,,,,,,,,,,,137.08423033397412,137.08423033397412,None,1,,,,,,,,,,,,,,,,,,,,,,,,,,,,,,,,,,,,,,,,,,,,,,,test,001,2023-04-21_14h46.52.580,PGNGS_RST_750_english,2022.2.5,89.08649538101517,
L_w.bmp,None,L_q.bmp,None,L_f.bmp,None,L_g.bmp,None,0.45,0.75,0,109,109,109,,,,,,,,,,,,,,,,,,,,,,,,,,137.83789945900207,137.83789945900207,None,1,,,,,,,,,,,,,,,,,,,,,,,,,,,,,,,,,,,,,,,,,,,,,,,test,001,2023-04-21_14h46.52.580,PGNGS_RST_750_english,2022.2.5,89.08649538101517,
L_m.bmp,None,L_k.bmp,None,L_n.bmp,None,L_h.bmp,None,0.75,0.75,0,110,110,110,,,,,,,,,,,,,,,,,,,,,,,,,,138.57548729202244,138.57548729202244,None,1,,,,,,,,,,,,,,,,,,,,,,,,,,,,,,,,,,,,,,,,,,,,,,,test,001,2023-04-21_14h46.52.580,PGNGS_RST_750_english,2022.2.5,89.08649538101517,
L_j.bmp,None,L_b.bmp,None,L_w.bmp,None,L_g.bmp,None,0.75,0.75,0,111,111,111,,,,,,,,,,,,,,,,,,,,,,,,,,139.32617462502094,139.32617462502094,None,1,,,,,,,,,,,,,,,,,,,,,,,,,,,,,,,,,,,,,,,,,,,,,,,test,001,2023-04-21_14h46.52.580,PGNGS_RST_750_english,2022.2.5,89.08649538101517,
L_m.bmp,None,L_r.bmp,n,L_b.bmp,None,L_p.bmp,None,0.75,0.75,0,112,112,112,,,,,,,,,,,,,,,,,,,,,,,,,,140.0854174590204,140.0854174590204,None,1,,,,,,,,,,,,,,,,,,,,,,,,,,,,,,,,,,,,,,,,,,,,,,,test,001,2023-04-21_14h46.52.580,PGNGS_RST_750_english,2022.2.5,89.08649538101517,
L_g.bmp,None,L_m.bmp,None,L_s.bmp,n,L_c.bmp,None,0.75,0.75,0,113,113,113,,,,,,,,,,,,,,,,,,,,,,,,,,140.8302002499695,140.8302002499695,None,1,,,,,,,,,,,,,,,,,,,,,,,,,,,,,,,,,,,,,,,,,,,,,,,test,001,2023-04-21_14h46.52.580,PGNGS_RST_750_english,2022.2.5,89.08649538101517,
L_k.bmp,None,L_l.bmp,None,L_v.bmp,None,L_r.bmp,n,0.75,0.75,0,114,114,114,,,,,,,,,,,,,,,,,,,,,,,,,,141.58212212502258,141.58212212502258,None,1,,,,,,,,,,,,,,,,,,,,,,,,,,,,,,,,,,,,,,,,,,,,,,,test,001,2023-04-21_14h46.52.580,PGNGS_RST_750_english,2022.2.5,89.08649538101517,
L_b.bmp,None,L_h.bmp,None,L_q.bmp,None,L_h.bmp,None,0.75,0.75,0,115,115,115,,,,,,,,,,,,,,,,,,,,,,,,,,142.3358037089929,142.3358037089929,None,1,,,,,,,,,,,,,,,,,,,,,,,,,,,,,,,,,,,,,,,,,,,,,,,test,001,2023-04-21_14h46.52.580,PGNGS_RST_750_english,2022.2.5,89.08649538101517,
L_r.bmp,n,L_g.bmp,None,L_d.bmp,None,L_d.bmp,None,0.75,0.75,0,116,116,116,,,,,,,,,,,,,,,,,,,,,,,,,,143.08382349996828,143.08382349996828,None,0,,,,,,,,,,,,,,,,,,,,,,,,,,,,,,,,,,,,,,,,,,,,,,,test,001,2023-04-21_14h46.52.580,PGNGS_RST_750_english,2022.2.5,89.08649538101517,
L_n.bmp,None,L_r.bmp,None,L_r.bmp,n,L_m.bmp,None,0.75,0.25,0,117,117,117,,,,,,,,,,,,,,,,,,,,,,,,,,143.83912916696863,143.83912916696863,None,1,,,,,,,,,,,,,,,,,,,,,,,,,,,,,,,,,,,,,,,,,,,,,,,test,001,2023-04-21_14h46.52.580,PGNGS_RST_750_english,2022.2.5,89.08649538101517,
L_q.bmp,None,L_g.bmp,None,L_v.bmp,None,L_j.bmp,None,0.75,0.5,0,118,118,118,,,,,,,,,,,,,,,,,,,,,,,,,,144.5893405000097,144.5893405000097,None,1,,,,,,,,,,,,,,,,,,,,,,,,,,,,,,,,,,,,,,,,,,,,,,,test,001,2023-04-21_14h46.52.580,PGNGS_RST_750_english,2022.2.5,89.08649538101517,
L_f.bmp,None,L_p.bmp,None,L_c.bmp,None,L_p.bmp,None,0.75,0.75,0,119,119,119,,,,,,,,,,,,,,,,,,,,,,,,,,145.3399368749815,145.3399368749815,None,1,,,,,,,,,,,,,,,,,,,,,,,,,,,,,,,,,,,,,,,,,,,,,,,test,001,2023-04-21_14h46.52.580,PGNGS_RST_750_english,2022.2.5,89.08649538101517,
L_r.bmp,n,L_c.bmp,None,L_j.bmp,None,L_b.bmp,None,0.75,0.75,0,120,120,120,,,,,,,,,,,,,,,,,,,,,,,,,,146.08602633397095,146.08602633397095,None,0,,,,,,,,,,,,,,,,,,,,,,,,,,,,,,,,,,,,,,,,,,,,,,,test,001,2023-04-21_14h46.52.580,PGNGS_RST_750_english,2022.2.5,89.08649538101517,
L_p.bmp,None,L_s.bmp,n,L_k.bmp,None,L_s.bmp,n,0.25,0.75,0,121,121,121,,,,,,,,,,,,,,,,,,,,,,,,,,146.82609362498624,146.82609362498624,n,0,0.08587791700847447,,,,,,,,,,,,,,,,,,,,,,,,,,,,,,,,,,,,,,,,,,,,,,test,001,2023-04-21_14h46.52.580,PGNGS_RST_750_english,2022.2.5,89.08649538101517,
L_k.bmp,None,L_g.bmp,None,L_w.bmp,None,L_b.bmp,None,0.5,0.75,0,122,122,122,,,,,,,,,,,,,,,,,,,,,,,,,,147.57507620897377,147.57507620897377,None,1,,,,,,,,,,,,,,,,,,,,,,,,,,,,,,,,,,,,,,,,,,,,,,,test,001,2023-04-21_14h46.52.580,PGNGS_RST_750_english,2022.2.5,89.08649538101517,
L_s.bmp,n,L_h.bmp,None,L_t.bmp,n,L_f.bmp,None,0.75,0.75,0,123,123,123,,,,,,,,,,,,,,,,,,,,,,,,,,148.33647249999922,148.33647249999922,None,0,,,,,,,,,,,,,,,,,,,,,,,,,,,,,,,,,,,,,,,,,,,,,,,test,001,2023-04-21_14h46.52.580,PGNGS_RST_750_english,2022.2.5,89.08649538101517,
L_f.bmp,None,L_m.bmp,None,L_f.bmp,None,L_r.bmp,n,0.75,0.75,0,124,124,124,,,,,,,,,,,,,,,,,,,,,,,,,,149.08885495900176,149.08885495900176,None,1,,,,,,,,,,,,,,,,,,,,,,,,,,,,,,,,,,,,,,,,,,,,,,,test,001,2023-04-21_14h46.52.580,PGNGS_RST_750_english,2022.2.5,89.08649538101517,
L_g.bmp,None,L_j.bmp,None,L_m.bmp,None,L_w.bmp,None,0.75,0.75,0,125,125,125,,,,,,,,,,,,,,,,,,,,,,,,,,149.82481579197338,149.82481579197338,None,1,,,,,,,,,,,,,,,,,,,,,,,,,,,,,,,,,,,,,,,,,,,,,,,test,001,2023-04-21_14h46.52.580,PGNGS_RST_750_english,2022.2.5,89.08649538101517,
L_k.bmp,None,L_p.bmp,None,L_g.bmp,None,L_h.bmp,None,0.75,0.75,0,126,126,126,,,,,,,,,,,,,,,,,,,,,,,,,,150.58747037500143,150.58747037500143,None,1,,,,,,,,,,,,,,,,,,,,,,,,,,,,,,,,,,,,,,,,,,,,,,,test,001,2023-04-21_14h46.52.580,PGNGS_RST_750_english,2022.2.5,89.08649538101517,
L_w.bmp,None,L_b.bmp,None,L_l.bmp,None,L_k.bmp,None,0.75,0.75,0,127,127,127,,,,,,,,,,,,,,,,,,,,,,,,,,151.33581429201877,151.33581429201877,None,1,,,,,,,,,,,,,,,,,,,,,,,,,,,,,,,,,,,,,,,,,,,,,,,test,001,2023-04-21_14h46.52.580,PGNGS_RST_750_english,2022.2.5,89.08649538101517,
L_j.bmp,None,L_s.bmp,None,L_w.bmp,None,L_r.bmp,None,0.75,0.75,0,128,128,128,,,,,,,,,,,,,,,,,,,,,,,,,,152.07337549998192,152.07337549998192,None,1,,,,,,,,,,,,,,,,,,,,,,,,,,,,,,,,,,,,,,,,,,,,,,,test,001,2023-04-21_14h46.52.580,PGNGS_RST_750_english,2022.2.5,89.08649538101517,
L_p.bmp,None,L_g.bmp,None,L_h.bmp,None,L_q.bmp,None,0.75,0.75,0,129,129,129,,,,,,,,,,,,,,,,,,,,,,,,,,152.8326938339742,152.8326938339742,None,1,,,,,,,,,,,,,,,,,,,,,,,,,,,,,,,,,,,,,,,,,,,,,,,test,001,2023-04-21_14h46.52.580,PGNGS_RST_750_english,2022.2.5,89.08649538101517,
L_g.bmp,None,L_b.bmp,None,L_w.bmp,None,L_d.bmp,None,0.75,0.75,0,130,130,130,,,,,,,,,,,,,,,,,,,,,,,,,,153.5875050839968,153.5875050839968,None,1,,,,,,,,,,,,,,,,,,,,,,,,,,,,,,,,,,,,,,,,,,,,,,,test,001,2023-04-21_14h46.52.580,PGNGS_RST_750_english,2022.2.5,89.08649538101517,
L_q.bmp,None,L_w.bmp,None,L_g.bmp,None,L_l.bmp,None,0.75,0.75,0,131,131,131,,,,,,,,,,,,,,,,,,,,,,,,,,154.33774587500375,154.33774587500375,None,1,,,,,,,,,,,,,,,,,,,,,,,,,,,,,,,,,,,,,,,,,,,,,,,test,001,2023-04-21_14h46.52.580,PGNGS_RST_750_english,2022.2.5,89.08649538101517,
L_w.bmp,None,L_r.bmp,n,L_m.bmp,None,L_j.bmp,None,0.75,0.75,0,132,132,132,,,,,,,,,,,,,,,,,,,,,,,,,,155.08798216696596,155.08798216696596,None,1,,,,,,,,,,,,,,,,,,,,,,,,,,,,,,,,,,,,,,,,,,,,,,,test,001,2023-04-21_14h46.52.580,PGNGS_RST_750_english,2022.2.5,89.08649538101517,
L_d.bmp,None,L_b.bmp,None,L_w.bmp,None,L_f.bmp,None,0.75,0.75,0,133,133,133,,,,,,,,,,,,,,,,,,,,,,,,,,155.83382387500023,155.83382387500023,None,1,,,,,,,,,,,,,,,,,,,,,,,,,,,,,,,,,,,,,,,,,,,,,,,test,001,2023-04-21_14h46.52.580,PGNGS_RST_750_english,2022.2.5,89.08649538101517,
L_f.bmp,None,L_k.bmp,None,L_h.bmp,None,L_s.bmp,n,0.75,0.75,0,134,134,134,,,,,,,,,,,,,,,,,,,,,,,,,,156.5778811670025,156.5778811670025,None,1,,,,,,,,,,,,,,,,,,,,,,,,,,,,,,,,,,,,,,,,,,,,,,,test,001,2023-04-21_14h46.52.580,PGNGS_RST_750_english,2022.2.5,89.08649538101517,
L_s.bmp,n,L_g.bmp,None,L_r.bmp,n,L_b.bmp,None,0.75,0.75,0,135,135,135,,,,,,,,,,,,,,,,,,,,,,,,,,157.32750212500105,157.32750212500105,None,0,,,,,,,,,,,,,,,,,,,,,,,,,,,,,,,,,,,,,,,,,,,,,,,test,001,2023-04-21_14h46.52.580,PGNGS_RST_750_english,2022.2.5,89.08649538101517,
L_j.bmp,None,L_s.bmp,n,L_j.bmp,None,L_p.bmp,None,0.75,0.75,0,136,136,136,,,,,,,,,,,,,,,,,,,,,,,,,,158.08526645897655,158.08526645897655,n,0,0.180019750026986,,,,,,,,,,,,,,,,,,,,,,,,,,,,,,,,,,,,,,,,,,,,,,test,001,2023-04-21_14h46.52.580,PGNGS_RST_750_english,2022.2.5,89.08649538101517,
L_k.bmp,None,L_g.bmp,None,L_k.bmp,None,L_w.bmp,None,0.75,0.75,0,137,137,137,,,,,,,,,,,,,,,,,,,,,,,,,,158.82918579201214,158.82918579201214,None,1,,,,,,,,,,,,,,,,,,,,,,,,,,,,,,,,,,,,,,,,,,,,,,,test,001,2023-04-21_14h46.52.580,PGNGS_RST_750_english,2022.2.5,89.08649538101517,
L_r.bmp,n,L_b.bmp,None,L_r.bmp,n,L_f.bmp,None,0.75,0.25,0,138,138,138,,,,,,,,,,,,,,,,,,,,,,,,,,159.58277070900658,159.58277070900658,None,0,,,,,,,,,,,,,,,,,,,,,,,,,,,,,,,,,,,,,,,,,,,,,,,test,001,2023-04-21_14h46.52.580,PGNGS_RST_750_english,2022.2.5,89.08649538101517,
L_k.bmp,None,L_r.bmp,n,L_k.bmp,None,L_k.bmp,None,0.75,0.5,0,139,139,139,,,,,,,,,,,,,,,,,,,,,,,,,,160.32546391698997,160.32546391698997,n,0,0.08330287499120459,,,,,,,,,,,,,,,,,,,,,,,,,,,,,,,,,,,,,,,,,,,,,,test,001,2023-04-21_14h46.52.580,PGNGS_RST_750_english,2022.2.5,89.08649538101517,
L_f.bmp,None,L_j.bmp,None,L_f.bmp,None,L_p.bmp,None,0.75,0.75,0,140,140,140,,,,,,,,,,,,,,,,,,,,,,,,,,161.08565879199887,161.08565879199887,None,1,,,,,,,,,,,,,,,,,,,,,,,,,,,,,,,,,,,,,,,,,,,,,,,test,001,2023-04-21_14h46.52.580,PGNGS_RST_750_english,2022.2.5,89.08649538101517,
L_l.bmp,None,L_b.bmp,None,L_l.bmp,None,L_t.bmp,n,0.75,0.75,0,141,141,141,,,,,,,,,,,,,,,,,,,,,,,,,,161.8308594590053,161.8308594590053,None,1,,,,,,,,,,,,,,,,,,,,,,,,,,,,,,,,,,,,,,,,,,,,,,,test,001,2023-04-21_14h46.52.580,PGNGS_RST_750_english,2022.2.5,89.08649538101517,
L_s.bmp,n,L_s.bmp,n,L_t.bmp,n,L_l.bmp,None,0.75,0.75,0,142,142,142,,,,,,,,,,,,,,,,,,,,,,,,,,162.58379179198528,162.58379179198528,n,1,0.5856108749867417,,,,,,,,,,,,,,,,,,,,,,,,,,,,,,,,,,,,,,,,,,,,,,test,001,2023-04-21_14h46.52.580,PGNGS_RST_750_english,2022.2.5,89.08649538101517,
L_n.bmp,None,L_n.bmp,None,L_n.bmp,None,L_b.bmp,None,0.75,0.75,0,143,143,143,,,,,,,,,,,,,,,,,,,,,,,,,,163.3253726249677,163.3253726249677,None,1,,,,,,,,,,,,,,,,,,,,,,,,,,,,,,,,,,,,,,,,,,,,,,,test,001,2023-04-21_14h46.52.580,PGNGS_RST_750_english,2022.2.5,89.08649538101517,
L_d.bmp,None,L_j.bmp,None,L_d.bmp,None,L_h.bmp,None,0.75,0.75,0,144,144,144,,,,,,,,,,,,,,,,,,,,,,,,,,164.0805840420071,164.0805840420071,None,1,,,,,,,,,,,,,,,,,,,,,,,,,,,,,,,,,,,,,,,,,,,,,,,test,001,2023-04-21_14h46.52.580,PGNGS_RST_750_english,2022.2.5,89.08649538101517,
L_s.bmp,n,L_h.bmp,None,L_s.bmp,n,L_c.bmp,None,0.75,0.75,0,145,145,145,,,,,,,,,,,,,,,,,,,,,,,,,,164.8284775840002,164.8284775840002,n,1,0.53102116700029,,,,,,,,,,,,,,,,,,,,,,,,,,,,,,,,,,,,,,,,,,,,,,test,001,2023-04-21_14h46.52.580,PGNGS_RST_750_english,2022.2.5,89.08649538101517,
L_v.bmp,None,L_m.bmp,None,L_v.bmp,None,L_m.bmp,None,0.75,0.75,0,146,146,146,,,,,,,,,,,,,,,,,,,,,,,,,,165.58623337501194,165.58623337501194,None,1,,,,,,,,,,,,,,,,,,,,,,,,,,,,,,,,,,,,,,,,,,,,,,,test,001,2023-04-21_14h46.52.580,PGNGS_RST_750_english,2022.2.5,89.08649538101517,
L_f.bmp,None,L_q.bmp,None,L_f.bmp,None,L_j.bmp,None,0.75,0.75,0,147,147,147,,,,,,,,,,,,,,,,,,,,,,,,,,166.3325243750005,166.3325243750005,None,1,,,,,,,,,,,,,,,,,,,,,,,,,,,,,,,,,,,,,,,,,,,,,,,test,001,2023-04-21_14h46.52.580,PGNGS_RST_750_english,2022.2.5,89.08649538101517,
L_w.bmp,None,L_b.bmp,None,L_w.bmp,None,L_p.bmp,None,0.75,0.75,0,148,148,148,,,,,,,,,,,,,,,,,,,,,,,,,,167.08615620899945,167.08615620899945,None,1,,,,,,,,,,,,,,,,,,,,,,,,,,,,,,,,,,,,,,,,,,,,,,,test,001,2023-04-21_14h46.52.580,PGNGS_RST_750_english,2022.2.5,89.08649538101517,
L_q.bmp,None,L_g.bmp,None,L_q.bmp,None,L_b.bmp,None,0.25,0.75,0,149,149,149,,,,,,,,,,,,,,,,,,,,,,,,,,167.8320198750007,167.8320198750007,None,1,,,,,,,,,,,,,,,,,,,,,,,,,,,,,,,,,,,,,,,,,,,,,,,test,001,2023-04-21_14h46.52.580,PGNGS_RST_750_english,2022.2.5,89.08649538101517,
L_k.bmp,None,L_r.bmp,n,L_k.bmp,None,L_f.bmp,None,0.5,0.75,0,150,150,150,,,,,,,,,,,,,,,,,,,,,,,,,,168.57478783401893,168.57478783401893,None,1,,,,,,,,,,,,,,,,,,,,,,,,,,,,,,,,,,,,,,,,,,,,,,,test,001,2023-04-21_14h46.52.580,PGNGS_RST_750_english,2022.2.5,89.08649538101517,
L_b.bmp,None,L_j.bmp,None,L_b.bmp,None,L_l.bmp,None,0.75,0.75,0,151,151,151,,,,,,,,,,,,,,,,,,,,,,,,,,169.33365124999546,169.33365124999546,None,1,,,,,,,,,,,,,,,,,,,,,,,,,,,,,,,,,,,,,,,,,,,,,,,test,001,2023-04-21_14h46.52.580,PGNGS_RST_750_english,2022.2.5,89.08649538101517,
L_f.bmp,None,L_f.bmp,None,L_j.bmp,None,L_v.bmp,None,0.75,0.75,0,152,152,152,,,,,,,,,,,,,,,,,,,,,,,,,,170.0876461250009,170.0876461250009,None,1,,,,,,,,,,,,,,,,,,,,,,,,,,,,,,,,,,,,,,,,,,,,,,,test,001,2023-04-21_14h46.52.580,PGNGS_RST_750_english,2022.2.5,89.08649538101517,
L_j.bmp,None,L_v.bmp,None,L_c.bmp,None,L_j.bmp,None,0.75,0.75,0,153,153,153,,,,,,,,,,,,,,,,,,,,,,,,,,170.83059774996946,170.83059774996946,None,1,,,,,,,,,,,,,,,,,,,,,,,,,,,,,,,,,,,,,,,,,,,,,,,test,001,2023-04-21_14h46.52.580,PGNGS_RST_750_english,2022.2.5,89.08649538101517,
L_s.bmp,n,L_f.bmp,None,L_s.bmp,n,L_t.bmp,None,0.75,0.75,0,154,154,154,,,,,,,,,,,,,,,,,,,,,,,,,,171.57638716697693,171.57638716697693,n,1,0.47344408300705254,,,,,,,,,,,,,,,,,,,,,,,,,,,,,,,,,,,,,,,,,,,,,,test,001,2023-04-21_14h46.52.580,PGNGS_RST_750_english,2022.2.5,89.08649538101517,
L_b.bmp,None,L_g.bmp,None,L_b.bmp,None,L_m.bmp,None,0.75,0.75,0,155,155,155,,,,,,,,,,,,,,,,,,,,,,,,,,172.3292700839811,172.3292700839811,None,1,,,,,,,,,,,,,,,,,,,,,,,,,,,,,,,,,,,,,,,,,,,,,,,test,001,2023-04-21_14h46.52.580,PGNGS_RST_750_english,2022.2.5,89.08649538101517,
L_q.bmp,None,L_h.bmp,None,L_q.bmp,None,L_k.bmp,None,0.75,0.75,0,156,156,156,,,,,,,,,,,,,,,,,,,,,,,,,,173.08444999996573,173.08444999996573,None,1,,,,,,,,,,,,,,,,,,,,,,,,,,,,,,,,,,,,,,,,,,,,,,,test,001,2023-04-21_14h46.52.580,PGNGS_RST_750_english,2022.2.5,89.08649538101517,
L_m.bmp,None,L_b.bmp,None,L_m.bmp,None,L_b.bmp,None,0.75,0.75,0,157,157,157,,,,,,,,,,,,,,,,,,,,,,,,,,173.83035683399066,173.83035683399066,None,1,,,,,,,,,,,,,,,,,,,,,,,,,,,,,,,,,,,,,,,,,,,,,,,test,001,2023-04-21_14h46.52.580,PGNGS_RST_750_english,2022.2.5,89.08649538101517,
L_q.bmp,None,L_v.bmp,None,L_q.bmp,None,L_s.bmp,n,0.75,0.75,0,158,158,158,,,,,,,,,,,,,,,,,,,,,,,,,,174.57960037497105,174.57960037497105,None,1,,,,,,,,,,,,,,,,,,,,,,,,,,,,,,,,,,,,,,,,,,,,,,,test,001,2023-04-21_14h46.52.580,PGNGS_RST_750_english,2022.2.5,89.08649538101517,
L_f.bmp,None,L_c.bmp,None,L_f.bmp,None,L_b.bmp,None,0.75,0.75,0,159,159,159,,,,,,,,,,,,,,,,,,,,,,,,,,175.3337265420123,175.3337265420123,None,1,,,,,,,,,,,,,,,,,,,,,,,,,,,,,,,,,,,,,,,,,,,,,,,test,001,2023-04-21_14h46.52.580,PGNGS_RST_750_english,2022.2.5,89.08649538101517,
L_j.bmp,None,L_l.bmp,None,L_j.bmp,None,L_d.bmp,None,0.75,0.3,0,160,160,160,,,,,,,,,,,,,,,,,,,,,,,,,,176.07616658398183,176.07616658398183,None,1,,,,,,,,,,,,,,,,,,,,,,,,,,,,,,,,,,,,,,,,,,,,,,,test,001,2023-04-21_14h46.52.580,PGNGS_RST_750_english,2022.2.5,89.08649538101517,
L_m.bmp,None,L_m.bmp,None,L_m.bmp,None,L_v.bmp,None,0.3,0.45,0,161,161,161,,,,,,,,,,,,,,,,,,,,,,,,,,176.83292837499175,176.83292837499175,None,1,,,,,,,,,,,,,,,,,,,,,,,,,,,,,,,,,,,,,,,,,,,,,,,test,001,2023-04-21_14h46.52.580,PGNGS_RST_750_english,2022.2.5,89.08649538101517,
L_b.bmp,None,L_n.bmp,None,L_b.bmp,None,L_b.bmp,None,0.45,0.75,0,162,162,162,,,,,,,,,,,,,,,,,,,,,,,,,,177.5855638339999,177.5855638339999,None,1,,,,,,,,,,,,,,,,,,,,,,,,,,,,,,,,,,,,,,,,,,,,,,,test,001,2023-04-21_14h46.52.580,PGNGS_RST_750_english,2022.2.5,89.08649538101517,
L_w.bmp,None,L_p.bmp,None,L_m.bmp,None,L_n.bmp,None,0.75,0.75,0,163,163,163,,,,,,,,,,,,,,,,,,,,,,,,,,178.32941687497078,178.32941687497078,None,1,,,,,,,,,,,,,,,,,,,,,,,,,,,,,,,,,,,,,,,,,,,,,,,test,001,2023-04-21_14h46.52.580,PGNGS_RST_750_english,2022.2.5,89.08649538101517,
L_m.bmp,None,L_v.bmp,None,L_b.bmp,None,L_c.bmp,None,0.75,0.75,0,164,164,164,,,,,,,,,,,,,,,,,,,,,,,,,,179.0846593750175,179.0846593750175,None,1,,,,,,,,,,,,,,,,,,,,,,,,,,,,,,,,,,,,,,,,,,,,,,,test,001,2023-04-21_14h46.52.580,PGNGS_RST_750_english,2022.2.5,89.08649538101517,
L_n.bmp,None,L_p.bmp,None,L_n.bmp,None,L_p.bmp,None,0.75,0.75,0,165,165,165,,,,,,,,,,,,,,,,,,,,,,,,,,179.82857449998846,179.82857449998846,None,1,,,,,,,,,,,,,,,,,,,,,,,,,,,,,,,,,,,,,,,,,,,,,,,test,001,2023-04-21_14h46.52.580,PGNGS_RST_750_english,2022.2.5,89.08649538101517,
L_f.bmp,None,L_r.bmp,None,L_f.bmp,None,L_f.bmp,None,0.75,0.75,0,166,166,166,,,,,,,,,,,,,,,,,,,,,,,,,,180.5765176669811,180.5765176669811,None,1,,,,,,,,,,,,,,,,,,,,,,,,,,,,,,,,,,,,,,,,,,,,,,,test,001,2023-04-21_14h46.52.580,PGNGS_RST_750_english,2022.2.5,89.08649538101517,
L_m.bmp,None,L_l.bmp,None,L_m.bmp,None,L_p.bmp,None,0.75,0.75,0,167,167,167,,,,,,,,,,,,,,,,,,,,,,,,,,181.3328379589948,181.3328379589948,None,1,,,,,,,,,,,,,,,,,,,,,,,,,,,,,,,,,,,,,,,,,,,,,,,test,001,2023-04-21_14h46.52.580,PGNGS_RST_750_english,2022.2.5,89.08649538101517,
L_b.bmp,None,L_n.bmp,None,L_m.bmp,None,L_v.bmp,None,0.75,0.75,,,,,0,0,0,0,,,,,,,,,,,,,,,,,,,,,231.94603479199577,,,,,,182.07129683397943,182.07129683397943,185.1827151249745,195.18415404198458,195.27247145900037,205.2710071670008,205.37279716698686,215.3772861249745,215.4798319590045,227.48159612499876,227.57231220899848,227.57231220899848,233.02820704202168,233.02820704202168,None,1,,,,,,,,,,,,,,,,,,,,,,,,,,,,,,test,001,2023-04-21_14h46.52.580,PGNGS_RST_750_english,2022.2.5,89.08649538101517,
L_k.bmp,None,L_q.bmp,None,L_b.bmp,None,L_c.bmp,None,0.75,0.75,,,,,0,1,1,1,,,,,,,,,,,,,,,,,,,,,,,,,,,,,,,,,,,,,,,233.71197333402233,233.71197333402233,None,1,,,,,,,,,,,,,,,,,,,,,,,,,,,,,,test,001,2023-04-21_14h46.52.580,PGNGS_RST_750_english,2022.2.5,89.08649538101517,
L_s.bmp,n,L_f.bmp,None,L_s.bmp,n,L_j.bmp,None,0.75,0.75,,,,,0,2,2,2,,,,,,,,,,,,,,,,,,,,,,,,,,,,,,,,,,,,,,,234.4659791669692,234.4659791669692,None,1,,,,,,,,,,,,,,,,,,,,,,,,,,,,,,test,001,2023-04-21_14h46.52.580,PGNGS_RST_750_english,2022.2.5,89.08649538101517,
L_g.bmp,None,L_r.bmp,n,L_b.bmp,None,L_k.bmp,None,0.75,0.75,,,,,0,3,3,3,,,,,,,,,,,,,,,,,,,,,,,,,,,,,,,,,,,,,,,235.21031104197027,235.21031104197027,n,1,0.5756219580071047,,,,,,,,,,,,,,,,,,,,,,,,,,,,,test,001,2023-04-21_14h46.52.580,PGNGS_RST_750_english,2022.2.5,89.08649538101517,
L_j.bmp,None,L_p.bmp,None,L_d.bmp,None,L_w.bmp,None,0.75,0.75,,,,,0,4,4,4,,,,,,,,,,,,,,,,,,,,,,,,,,,,,,,,,,,,,,,235.97109095897758,235.97109095897758,None,1,,,,,,,,,,,,,,,,,,,,,,,,,,,,,,test,001,2023-04-21_14h46.52.580,PGNGS_RST_750_english,2022.2.5,89.08649538101517,
L_b.bmp,None,L_k.bmp,None,L_v.bmp,None,L_t.bmp,n,0.75,0.75,,,,,0,5,5,5,,,,,,,,,,,,,,,,,,,,,,,,,,,,,,,,,,,,,,,236.71665745897917,236.71665745897917,None,1,,,,,,,,,,,,,,,,,,,,,,,,,,,,,,test,001,2023-04-21_14h46.52.580,PGNGS_RST_750_english,2022.2.5,89.08649538101517,
L_r.bmp,n,L_m.bmp,None,L_b.bmp,None,L_f.bmp,None,0.75,0.75,,,,,0,6,6,6,,,,,,,,,,,,,,,,,,,,,,,,,,,,,,,,,,,,,,,237.45579520898173,237.45579520898173,None,1,,,,,,,,,,,,,,,,,,,,,,,,,,,,,,test,001,2023-04-21_14h46.52.580,PGNGS_RST_750_english,2022.2.5,89.08649538101517,
L_j.bmp,None,L_f.bmp,None,L_n.bmp,None,L_m.bmp,None,0.75,0.75,,,,,0,7,7,7,,,,,,,,,,,,,,,,,,,,,,,,,,,,,,,,,,,,,,,238.20785116701154,238.20785116701154,None,1,,,,,,,,,,,,,,,,,,,,,,,,,,,,,,test,001,2023-04-21_14h46.52.580,PGNGS_RST_750_english,2022.2.5,89.08649538101517,
L_b.bmp,None,L_k.bmp,None,L_c.bmp,None,L_g.bmp,None,0.75,0.75,,,,,0,8,8,8,,,,,,,,,,,,,,,,,,,,,,,,,,,,,,,,,,,,,,,238.9582614999963,238.9582614999963,None,1,,,,,,,,,,,,,,,,,,,,,,,,,,,,,,test,001,2023-04-21_14h46.52.580,PGNGS_RST_750_english,2022.2.5,89.08649538101517,
L_n.bmp,None,L_s.bmp,n,L_p.bmp,None,L_l.bmp,None,0.75,0.75,,,,,0,9,9,9,,,,,,,,,,,,,,,,,,,,,,,,,,,,,,,,,,,,,,,239.70262733398704,239.70262733398704,n,1,0.44878204201813787,,,,,,,,,,,,,,,,,,,,,,,,,,,,,test,001,2023-04-21_14h46.52.580,PGNGS_RST_750_english,2022.2.5,89.08649538101517,
L_l.bmp,None,L_w.bmp,None,L_f.bmp,None,L_w.bmp,None,0.75,0.75,,,,,0,10,10,10,,,,,,,,,,,,,,,,,,,,,,,,,,,,,,,,,,,,,,,240.4528717090143,240.4528717090143,None,1,,,,,,,,,,,,,,,,,,,,,,,,,,,,,,test,001,2023-04-21_14h46.52.580,PGNGS_RST_750_english,2022.2.5,89.08649538101517,
L_j.bmp,None,L_j.bmp,None,L_p.bmp,None,L_h.bmp,None,0.75,0.75,,,,,0,11,11,11,,,,,,,,,,,,,,,,,,,,,,,,,,,,,,,,,,,,,,,241.2051632090006,241.2051632090006,None,1,,,,,,,,,,,,,,,,,,,,,,,,,,,,,,test,001,2023-04-21_14h46.52.580,PGNGS_RST_750_english,2022.2.5,89.08649538101517,
L_h.bmp,None,L_p.bmp,None,L_t.bmp,n,L_w.bmp,None,0.75,0.25,,,,,0,12,12,12,,,,,,,,,,,,,,,,,,,,,,,,,,,,,,,,,,,,,,,241.95662641699892,241.95662641699892,None,1,,,,,,,,,,,,,,,,,,,,,,,,,,,,,,test,001,2023-04-21_14h46.52.580,PGNGS_RST_750_english,2022.2.5,89.08649538101517,
L_r.bmp,n,L_g.bmp,None,L_q.bmp,None,L_g.bmp,None,0.75,0.5,,,,,0,13,13,13,,,,,,,,,,,,,,,,,,,,,,,,,,,,,,,,,,,,,,,242.70909033401404,242.70909033401404,None,1,,,,,,,,,,,,,,,,,,,,,,,,,,,,,,test,001,2023-04-21_14h46.52.580,PGNGS_RST_750_english,2022.2.5,89.08649538101517,
L_q.bmp,None,L_q.bmp,None,L_p.bmp,None,L_m.bmp,None,0.75,0.75,,,,,0,14,14,14,,,,,,,,,,,,,,,,,,,,,,,,,,,,,,,,,,,,,,,243.4698322089971,243.4698322089971,None,1,,,,,,,,,,,,,,,,,,,,,,,,,,,,,,test,001,2023-04-21_14h46.52.580,PGNGS_RST_750_english,2022.2.5,89.08649538101517,
L_b.bmp,None,L_w.bmp,None,L_m.bmp,None,L_w.bmp,None,0.75,0.75,,,,,0,15,15,15,,,,,,,,,,,,,,,,,,,,,,,,,,,,,,,,,,,,,,,244.2084245000151,244.2084245000151,None,1,,,,,,,,,,,,,,,,,,,,,,,,,,,,,,test,001,2023-04-21_14h46.52.580,PGNGS_RST_750_english,2022.2.5,89.08649538101517,
L_g.bmp,None,L_s.bmp,None,L_s.bmp,n,L_h.bmp,None,0.25,0.75,,,,,0,16,16,16,,,,,,,,,,,,,,,,,,,,,,,,,,,,,,,,,,,,,,,244.95373433397617,244.95373433397617,None,1,,,,,,,,,,,,,,,,,,,,,,,,,,,,,,test,001,2023-04-21_14h46.52.580,PGNGS_RST_750_english,2022.2.5,89.08649538101517,
L_r.bmp,n,L_f.bmp,None,L_h.bmp,None,L_r.bmp,n,0.5,0.75,,,,,0,17,17,17,,,,,,,,,,,,,,,,,,,,,,,,,,,,,,,,,,,,,,,245.7078728339984,245.7078728339984,None,1,,,,,,,,,,,,,,,,,,,,,,,,,,,,,,test,001,2023-04-21_14h46.52.580,PGNGS_RST_750_english,2022.2.5,89.08649538101517,
L_f.bmp,None,L_m.bmp,None,L_b.bmp,None,L_j.bmp,None,0.75,0.75,,,,,0,18,18,18,,,,,,,,,,,,,,,,,,,,,,,,,,,,,,,,,,,,,,,246.45337100001052,246.45337100001052,None,1,,,,,,,,,,,,,,,,,,,,,,,,,,,,,,test,001,2023-04-21_14h46.52.580,PGNGS_RST_750_english,2022.2.5,89.08649538101517,
L_g.bmp,None,L_j.bmp,None,L_m.bmp,None,L_k.bmp,None,0.75,0.75,,,,,0,19,19,19,,,,,,,,,,,,,,,,,,,,,,,,,,,,,,,,,,,,,,,247.21705624996684,247.21705624996684,None,1,,,,,,,,,,,,,,,,,,,,,,,,,,,,,,test,001,2023-04-21_14h46.52.580,PGNGS_RST_750_english,2022.2.5,89.08649538101517,
L_v.bmp,None,L_k.bmp,None,L_s.bmp,n,L_r.bmp,None,0.75,0.75,,,,,0,20,20,20,,,,,,,,,,,,,,,,,,,,,,,,,,,,,,,,,,,,,,,247.9574749589665,247.9574749589665,None,1,,,,,,,,,,,,,,,,,,,,,,,,,,,,,,test,001,2023-04-21_14h46.52.580,PGNGS_RST_750_english,2022.2.5,89.08649538101517,
L_f.bmp,None,L_r.bmp,n,L_q.bmp,None,L_k.bmp,None,0.75,0.75,,,,,0,21,21,21,,,,,,,,,,,,,,,,,,,,,,,,,,,,,,,,,,,,,,,248.7106381250196,248.7106381250196,n,1,0.4696780419908464,,,,,,,,,,,,,,,,,,,,,,,,,,,,,test,001,2023-04-21_14h46.52.580,PGNGS_RST_750_english,2022.2.5,89.08649538101517,
L_g.bmp,None,L_k.bmp,None,L_v.bmp,None,L_f.bmp,None,0.75,0.75,,,,,0,22,22,22,,,,,,,,,,,,,,,,,,,,,,,,,,,,,,,,,,,,,,,249.45408491697162,249.45408491697162,None,1,,,,,,,,,,,,,,,,,,,,,,,,,,,,,,test,001,2023-04-21_14h46.52.580,PGNGS_RST_750_english,2022.2.5,89.08649538101517,
L_h.bmp,None,L_f.bmp,None,L_l.bmp,None,L_l.bmp,None,0.75,0.75,,,,,0,23,23,23,,,,,,,,,,,,,,,,,,,,,,,,,,,,,,,,,,,,,,,250.2014173339703,250.2014173339703,None,1,,,,,,,,,,,,,,,,,,,,,,,,,,,,,,test,001,2023-04-21_14h46.52.580,PGNGS_RST_750_english,2022.2.5,89.08649538101517,
L_b.bmp,None,L_l.bmp,None,L_s.bmp,n,L_f.bmp,None,0.75,0.75,,,,,0,24,24,24,,,,,,,,,,,,,,,,,,,,,,,,,,,,,,,,,,,,,,,250.9560800420004,250.9560800420004,None,1,,,,,,,,,,,,,,,,,,,,,,,,,,,,,,test,001,2023-04-21_14h46.52.580,PGNGS_RST_750_english,2022.2.5,89.08649538101517,
L_v.bmp,None,L_s.bmp,n,L_j.bmp,None,L_r.bmp,None,0.75,0.75,,,,,0,25,25,25,,,,,,,,,,,,,,,,,,,,,,,,,,,,,,,,,,,,,,,251.72041833400726,251.72041833400726,n,1,0.5508534169639461,,,,,,,,,,,,,,,,,,,,,,,,,,,,,test,001,2023-04-21_14h46.52.580,PGNGS_RST_750_english,2022.2.5,89.08649538101517,
L_c.bmp,None,L_n.bmp,None,L_g.bmp,None,L_n.bmp,None,0.75,0.75,,,,,0,26,26,26,,,,,,,,,,,,,,,,,,,,,,,,,,,,,,,,,,,,,,,252.45804470899748,252.45804470899748,None,1,,,,,,,,,,,,,,,,,,,,,,,,,,,,,,test,001,2023-04-21_14h46.52.580,PGNGS_RST_750_english,2022.2.5,89.08649538101517,
L_l.bmp,None,L_d.bmp,None,L_f.bmp,None,L_d.bmp,None,0.75,0.4,,,,,0,27,27,27,,,,,,,,,,,,,,,,,,,,,,,,,,,,,,,,,,,,,,,253.2100566669833,253.2100566669833,None,1,,,,,,,,,,,,,,,,,,,,,,,,,,,,,,test,001,2023-04-21_14h46.52.580,PGNGS_RST_750_english,2022.2.5,89.08649538101517,
L_m.bmp,None,L_r.bmp,n,L_t.bmp,n,L_s.bmp,n,0.75,0.35,,,,,0,28,28,28,,,,,,,,,,,,,,,,,,,,,,,,,,,,,,,,,,,,,,,253.95154870901024,253.95154870901024,n,1,0.44980833400040865,,,,,,,,,,,,,,,,,,,,,,,,,,,,,test,001,2023-04-21_14h46.52.580,PGNGS_RST_750_english,2022.2.5,89.08649538101517,
L_n.bmp,None,L_v.bmp,None,L_d.bmp,None,L_v.bmp,None,0.75,0.75,,,,,0,29,29,29,,,,,,,,,,,,,,,,,,,,,,,,,,,,,,,,,,,,,,,254.70914137497311,254.70914137497311,None,1,,,,,,,,,,,,,,,,,,,,,,,,,,,,,,test,001,2023-04-21_14h46.52.580,PGNGS_RST_750_english,2022.2.5,89.08649538101517,
L_p.bmp,None,L_f.bmp,None,L_c.bmp,None,L_f.bmp,None,0.75,0.75,,,,,0,30,30,30,,,,,,,,,,,,,,,,,,,,,,,,,,,,,,,,,,,,,,,255.4559466249775,255.4559466249775,None,1,,,,,,,,,,,,,,,,,,,,,,,,,,,,,,test,001,2023-04-21_14h46.52.580,PGNGS_RST_750_english,2022.2.5,89.08649538101517,
L_v.bmp,None,L_w.bmp,None,L_n.bmp,None,L_w.bmp,None,0.75,0.75,,,,,0,31,31,31,,,,,,,,,,,,,,,,,,,,,,,,,,,,,,,,,,,,,,,256.2055407089647,256.2055407089647,None,1,,,,,,,,,,,,,,,,,,,,,,,,,,,,,,test,001,2023-04-21_14h46.52.580,PGNGS_RST_750_english,2022.2.5,89.08649538101517,
L_p.bmp,None,L_q.bmp,None,L_h.bmp,None,L_q.bmp,None,0.75,0.75,,,,,0,32,32,32,,,,,,,,,,,,,,,,,,,,,,,,,,,,,,,,,,,,,,,256.9537307500141,256.9537307500141,None,1,,,,,,,,,,,,,,,,,,,,,,,,,,,,,,test,001,2023-04-21_14h46.52.580,PGNGS_RST_750_english,2022.2.5,89.08649538101517,
L_l.bmp,None,L_k.bmp,None,L_g.bmp,None,L_k.bmp,None,0.75,0.75,,,,,0,33,33,33,,,,,,,,,,,,,,,,,,,,,,,,,,,,,,,,,,,,,,,257.71241262496915,257.71241262496915,None,1,,,,,,,,,,,,,,,,,,,,,,,,,,,,,,test,001,2023-04-21_14h46.52.580,PGNGS_RST_750_english,2022.2.5,89.08649538101517,
L_r.bmp,n,L_b.bmp,None,L_l.bmp,None,L_b.bmp,None,0.75,0.75,,,,,0,34,34,34,,,,,,,,,,,,,,,,,,,,,,,,,,,,,,,,,,,,,,,258.4599940839689,258.4599940839689,None,1,,,,,,,,,,,,,,,,,,,,,,,,,,,,,,test,001,2023-04-21_14h46.52.580,PGNGS_RST_750_english,2022.2.5,89.08649538101517,
L_q.bmp,None,L_j.bmp,None,L_b.bmp,None,L_j.bmp,None,0.75,0.75,,,,,0,35,35,35,,,,,,,,,,,,,,,,,,,,,,,,,,,,,,,,,,,,,,,259.2099486250081,259.2099486250081,None,1,,,,,,,,,,,,,,,,,,,,,,,,,,,,,,test,001,2023-04-21_14h46.52.580,PGNGS_RST_750_english,2022.2.5,89.08649538101517,
L_g.bmp,None,L_k.bmp,None,L_t.bmp,n,L_l.bmp,None,0.75,0.3,,,,,0,36,36,36,,,,,,,,,,,,,,,,,,,,,,,,,,,,,,,,,,,,,,,259.9554838750046,259.9554838750046,None,1,,,,,,,,,,,,,,,,,,,,,,,,,,,,,,test,001,2023-04-21_14h46.52.580,PGNGS_RST_750_english,2022.2.5,89.08649538101517,
L_r.bmp,n,L_b.bmp,None,L_k.bmp,None,L_b.bmp,None,0.75,0.45,,,,,0,37,37,37,,,,,,,,,,,,,,,,,,,,,,,,,,,,,,,,,,,,,,,260.7023691670038,260.7023691670038,None,1,,,,,,,,,,,,,,,,,,,,,,,,,,,,,,test,001,2023-04-21_14h46.52.580,PGNGS_RST_750_english,2022.2.5,89.08649538101517,
L_b.bmp,None,L_r.bmp,None,L_j.bmp,None,L_t.bmp,n,0.75,0.75,,,,,0,38,38,38,,,,,,,,,,,,,,,,,,,,,,,,,,,,,,,,,,,,,,,261.4592435840168,261.4592435840168,n,0,0.5169221250107512,,,,,,,,,,,,,,,,,,,,,,,,,,,,,test,001,2023-04-21_14h46.52.580,PGNGS_RST_750_english,2022.2.5,89.08649538101517,
L_j.bmp,None,L_q.bmp,None,L_f.bmp,None,L_q.bmp,None,0.4,0.75,,,,,0,39,39,39,,,,,,,,,,,,,,,,,,,,,,,,,,,,,,,,,,,,,,,262.20979704201454,262.20979704201454,None,1,,,,,,,,,,,,,,,,,,,,,,,,,,,,,,test,001,2023-04-21_14h46.52.580,PGNGS_RST_750_english,2022.2.5,89.08649538101517,
L_g.bmp,None,L_m.bmp,None,L_g.bmp,None,L_m.bmp,None,0.35,0.75,,,,,0,40,40,40,,,,,,,,,,,,,,,,,,,,,,,,,,,,,,,,,,,,,,,262.9564222500194,262.9564222500194,None,1,,,,,,,,,,,,,,,,,,,,,,,,,,,,,,test,001,2023-04-21_14h46.52.580,PGNGS_RST_750_english,2022.2.5,89.08649538101517,
L_s.bmp,n,L_q.bmp,None,L_h.bmp,None,L_q.bmp,None,0.75,0.75,,,,,0,41,41,41,,,,,,,,,,,,,,,,,,,,,,,,,,,,,,,,,,,,,,,263.7106112500187,263.7106112500187,None,1,,,,,,,,,,,,,,,,,,,,,,,,,,,,,,test,001,2023-04-21_14h46.52.580,PGNGS_RST_750_english,2022.2.5,89.08649538101517,
L_v.bmp,None,L_f.bmp,None,L_b.bmp,None,L_j.bmp,None,0.75,0.75,,,,,0,42,42,42,,,,,,,,,,,,,,,,,,,,,,,,,,,,,,,,,,,,,,,264.4584601249662,264.4584601249662,None,1,,,,,,,,,,,,,,,,,,,,,,,,,,,,,,test,001,2023-04-21_14h46.52.580,PGNGS_RST_750_english,2022.2.5,89.08649538101517,
L_m.bmp,None,L_j.bmp,None,L_v.bmp,None,L_m.bmp,None,0.75,0.75,,,,,0,43,43,43,,,,,,,,,,,,,,,,,,,,,,,,,,,,,,,,,,,,,,,265.20768966700416,265.20768966700416,None,1,,,,,,,,,,,,,,,,,,,,,,,,,,,,,,test,001,2023-04-21_14h46.52.580,PGNGS_RST_750_english,2022.2.5,89.08649538101517,
L_b.bmp,None,L_m.bmp,None,L_b.bmp,None,L_b.bmp,None,0.75,0.75,,,,,0,44,44,44,,,,,,,,,,,,,,,,,,,,,,,,,,,,,,,,,,,,,,,265.9512884999858,265.9512884999858,None,1,,,,,,,,,,,,,,,,,,,,,,,,,,,,,,test,001,2023-04-21_14h46.52.580,PGNGS_RST_750_english,2022.2.5,89.08649538101517,
L_s.bmp,n,L_b.bmp,None,L_r.bmp,n,L_m.bmp,None,0.75,0.75,,,,,0,45,45,45,,,,,,,,,,,,,,,,,,,,,,,,,,,,,,,,,,,,,,,266.7034969169763,266.7034969169763,None,1,,,,,,,,,,,,,,,,,,,,,,,,,,,,,,test,001,2023-04-21_14h46.52.580,PGNGS_RST_750_english,2022.2.5,89.08649538101517,
L_b.bmp,None,L_j.bmp,None,L_b.bmp,None,L_d.bmp,None,0.75,0.75,,,,,0,46,46,46,,,,,,,,,,,,,,,,,,,,,,,,,,,,,,,,,,,,,,,267.4492148340214,267.4492148340214,None,1,,,,,,,,,,,,,,,,,,,,,,,,,,,,,,test,001,2023-04-21_14h46.52.580,PGNGS_RST_750_english,2022.2.5,89.08649538101517,
L_d.bmp,None,L_m.bmp,None,L_n.bmp,None,L_n.bmp,None,0.75,0.75,,,,,0,47,47,47,,,,,,,,,,,,,,,,,,,,,,,,,,,,,,,,,,,,,,,268.2175854590023,268.2175854590023,None,1,,,,,,,,,,,,,,,,,,,,,,,,,,,,,,test,001,2023-04-21_14h46.52.580,PGNGS_RST_750_english,2022.2.5,89.08649538101517,
L_v.bmp,None,L_n.bmp,None,L_l.bmp,None,L_l.bmp,None,0.75,0.75,,,,,0,48,48,48,,,,,,,,,,,,,,,,,,,,,,,,,,,,,,,,,,,,,,,268.95830012497026,268.95830012497026,None,1,,,,,,,,,,,,,,,,,,,,,,,,,,,,,,test,001,2023-04-21_14h46.52.580,PGNGS_RST_750_english,2022.2.5,89.08649538101517,
L_b.bmp,None,L_f.bmp,None,L_j.bmp,None,L_j.bmp,None,0.75,0.75,,,,,0,49,49,49,,,,,,,,,,,,,,,,,,,,,,,,,,,,,,,,,,,,,,,269.71466754196445,269.71466754196445,None,1,,,,,,,,,,,,,,,,,,,,,,,,,,,,,,test,001,2023-04-21_14h46.52.580,PGNGS_RST_750_english,2022.2.5,89.08649538101517,
L_n.bmp,None,L_m.bmp,None,L_h.bmp,None,L_h.bmp,None,0.75,0.75,,,,,0,50,50,50,,,,,,,,,,,,,,,,,,,,,,,,,,,,,,,,,,,,,,,270.4663712090114,270.4663712090114,None,1,,,,,,,,,,,,,,,,,,,,,,,,,,,,,,test,001,2023-04-21_14h46.52.580,PGNGS_RST_750_english,2022.2.5,89.08649538101517,
L_c.bmp,None,L_p.bmp,None,L_t.bmp,n,L_s.bmp,n,0.75,0.75,,,,,0,51,51,51,,,,,,,,,,,,,,,,,,,,,,,,,,,,,,,,,,,,,,,271.20960141700925,271.20960141700925,None,1,,,,,,,,,,,,,,,,,,,,,,,,,,,,,,test,001,2023-04-21_14h46.52.580,PGNGS_RST_750_english,2022.2.5,89.08649538101517,
L_p.bmp,None,L_l.bmp,None,L_q.bmp,None,L_q.bmp,None,0.75,0.75,,,,,0,52,52,52,,,,,,,,,,,,,,,,,,,,,,,,,,,,,,,,,,,,,,,271.95782612496987,271.95782612496987,None,1,,,,,,,,,,,,,,,,,,,,,,,,,,,,,,test,001,2023-04-21_14h46.52.580,PGNGS_RST_750_english,2022.2.5,89.08649538101517,
L_f.bmp,None,L_h.bmp,None,L_b.bmp,None,L_b.bmp,None,0.75,0.75,,,,,0,53,53,53,,,,,,,,,,,,,,,,,,,,,,,,,,,,,,,,,,,,,,,272.717329334002,272.717329334002,None,1,,,,,,,,,,,,,,,,,,,,,,,,,,,,,,test,001,2023-04-21_14h46.52.580,PGNGS_RST_750_english,2022.2.5,89.08649538101517,
L_p.bmp,None,L_s.bmp,n,L_g.bmp,None,L_g.bmp,None,0.75,0.75,,,,,0,54,54,54,,,,,,,,,,,,,,,,,,,,,,,,,,,,,,,,,,,,,,,273.457307500008,273.457307500008,n,1,0.5366126250009984,,,,,,,,,,,,,,,,,,,,,,,,,,,,,test,001,2023-04-21_14h46.52.580,PGNGS_RST_750_english,2022.2.5,89.08649538101517,
L_r.bmp,n,L_v.bmp,None,L_t.bmp,n,L_t.bmp,n,0.75,0.75,,,,,0,55,55,55,,,,,,,,,,,,,,,,,,,,,,,,,,,,,,,,,,,,,,,274.20135962497443,274.20135962497443,None,1,,,,,,,,,,,,,,,,,,,,,,,,,,,,,,test,001,2023-04-21_14h46.52.580,PGNGS_RST_750_english,2022.2.5,89.08649538101517,
L_q.bmp,None,L_h.bmp,None,L_g.bmp,None,L_g.bmp,None,0.75,0.75,,,,,0,56,56,56,,,,,,,,,,,,,,,,,,,,,,,,,,,,,,,,,,,,,,,274.9603012499865,274.9603012499865,None,1,,,,,,,,,,,,,,,,,,,,,,,,,,,,,,test,001,2023-04-21_14h46.52.580,PGNGS_RST_750_english,2022.2.5,89.08649538101517,
L_f.bmp,None,L_k.bmp,None,L_k.bmp,None,L_l.bmp,None,0.75,0.75,,,,,0,57,57,57,,,,,,,,,,,,,,,,,,,,,,,,,,,,,,,,,,,,,,,275.715398291999,275.715398291999,None,1,,,,,,,,,,,,,,,,,,,,,,,,,,,,,,test,001,2023-04-21_14h46.52.580,PGNGS_RST_750_english,2022.2.5,89.08649538101517,
L_s.bmp,n,L_r.bmp,n,L_f.bmp,None,L_r.bmp,n,0.75,0.75,,,,,0,58,58,58,,,,,,,,,,,,,,,,,,,,,,,,,,,,,,,,,,,,,,,276.4600182499853,276.4600182499853,None,0,,,,,,,,,,,,,,,,,,,,,,,,,,,,,,test,001,2023-04-21_14h46.52.580,PGNGS_RST_750_english,2022.2.5,89.08649538101517,
L_m.bmp,None,L_q.bmp,None,L_l.bmp,None,L_f.bmp,None,0.75,0.75,,,,,0,59,59,59,,,,,,,,,,,,,,,,,,,,,,,,,,,,,,,,,,,,,,,277.20626616699155,277.20626616699155,n,0,0.05834016704466194,,,,,,,,,,,,,,,,,,,,,,,,,,,,,test,001,2023-04-21_14h46.52.580,PGNGS_RST_750_english,2022.2.5,89.08649538101517,
L_h.bmp,None,L_d.bmp,None,L_r.bmp,n,L_k.bmp,None,0.75,0.75,,,,,0,60,60,60,,,,,,,,,,,,,,,,,,,,,,,,,,,,,,,,,,,,,,,277.9596639589872,277.9596639589872,None,1,,,,,,,,,,,,,,,,,,,,,,,,,,,,,,test,001,2023-04-21_14h46.52.580,PGNGS_RST_750_english,2022.2.5,89.08649538101517,
L_b.bmp,None,L_m.bmp,None,L_v.bmp,None,L_v.bmp,None,0.3,0.75,,,,,0,61,61,61,,,,,,,,,,,,,,,,,,,,,,,,,,,,,,,,,,,,,,,278.7074327499722,278.7074327499722,None,1,,,,,,,,,,,,,,,,,,,,,,,,,,,,,,test,001,2023-04-21_14h46.52.580,PGNGS_RST_750_english,2022.2.5,89.08649538101517,
L_m.bmp,None,L_j.bmp,None,L_c.bmp,None,L_c.bmp,None,0.45,0.75,,,,,0,62,62,62,,,,,,,,,,,,,,,,,,,,,,,,,,,,,,,,,,,,,,,279.46479287499096,279.46479287499096,None,1,,,,,,,,,,,,,,,,,,,,,,,,,,,,,,test,001,2023-04-21_14h46.52.580,PGNGS_RST_750_english,2022.2.5,89.08649538101517,
L_q.bmp,None,L_f.bmp,None,L_l.bmp,None,L_l.bmp,None,0.75,0.4,,,,,0,63,63,63,,,,,,,,,,,,,,,,,,,,,,,,,,,,,,,,,,,,,,,280.21440170897404,280.21440170897404,None,1,,,,,,,,,,,,,,,,,,,,,,,,,,,,,,test,001,2023-04-21_14h46.52.580,PGNGS_RST_750_english,2022.2.5,89.08649538101517,
L_s.bmp,n,L_d.bmp,None,L_m.bmp,None,L_m.bmp,None,0.75,0.35,,,,,0,64,64,64,,,,,,,,,,,,,,,,,,,,,,,,,,,,,,,,,,,,,,,280.9596995419706,280.9596995419706,None,1,,,,,,,,,,,,,,,,,,,,,,,,,,,,,,test,001,2023-04-21_14h46.52.580,PGNGS_RST_750_english,2022.2.5,89.08649538101517,
L_v.bmp,None,L_b.bmp,None,L_n.bmp,None,L_n.bmp,None,0.75,0.75,,,,,0,65,65,65,,,,,,,,,,,,,,,,,,,,,,,,,,,,,,,,,,,,,,,281.7128579170094,281.7128579170094,None,1,,,,,,,,,,,,,,,,,,,,,,,,,,,,,,test,001,2023-04-21_14h46.52.580,PGNGS_RST_750_english,2022.2.5,89.08649538101517,
L_l.bmp,None,L_p.bmp,None,L_r.bmp,n,L_p.bmp,None,0.75,0.75,,,,,0,66,66,66,,,,,,,,,,,,,,,,,,,,,,,,,,,,,,,,,,,,,,,282.4652268749778,282.4652268749778,None,1,,,,,,,,,,,,,,,,,,,,,,,,,,,,,,test,001,2023-04-21_14h46.52.580,PGNGS_RST_750_english,2022.2.5,89.08649538101517,
L_s.bmp,n,L_w.bmp,None,L_f.bmp,None,L_v.bmp,None,0.75,0.75,,,,,0,67,67,67,,,,,,,,,,,,,,,,,,,,,,,,,,,,,,,,,,,,,,,283.2069575000205,283.2069575000205,None,1,,,,,,,,,,,,,,,,,,,,,,,,,,,,,,test,001,2023-04-21_14h46.52.580,PGNGS_RST_750_english,2022.2.5,89.08649538101517,
L_j.bmp,None,L_d.bmp,None,L_p.bmp,None,L_p.bmp,None,0.75,0.75,,,,,0,68,68,68,,,,,,,,,,,,,,,,,,,,,,,,,,,,,,,,,,,,,,,283.9576930839685,283.9576930839685,None,1,,,,,,,,,,,,,,,,,,,,,,,,,,,,,,test,001,2023-04-21_14h46.52.580,PGNGS_RST_750_english,2022.2.5,89.08649538101517,
L_g.bmp,None,L_f.bmp,None,L_l.bmp,None,L_l.bmp,None,0.75,0.75,,,,,0,69,69,69,,,,,,,,,,,,,,,,,,,,,,,,,,,,,,,,,,,,,,,284.70610612496966,284.70610612496966,None,1,,,,,,,,,,,,,,,,,,,,,,,,,,,,,,test,001,2023-04-21_14h46.52.580,PGNGS_RST_750_english,2022.2.5,89.08649538101517,
L_f.bmp,None,L_r.bmp,None,L_r.bmp,n,L_r.bmp,None,0.75,0.75,,,,,0,70,70,70,,,,,,,,,,,,,,,,,,,,,,,,,,,,,,,,,,,,,,,285.45908825000515,285.45908825000515,n,0,0.5938589169527404,,,,,,,,,,,,,,,,,,,,,,,,,,,,,test,001,2023-04-21_14h46.52.580,PGNGS_RST_750_english,2022.2.5,89.08649538101517,
L_d.bmp,None,L_p.bmp,None,L_q.bmp,None,L_q.bmp,None,0.75,0.75,,,,,0,71,71,71,,,,,,,,,,,,,,,,,,,,,,,,,,,,,,,,,,,,,,,286.215107166965,286.215107166965,None,1,,,,,,,,,,,,,,,,,,,,,,,,,,,,,,test,001,2023-04-21_14h46.52.580,PGNGS_RST_750_english,2022.2.5,89.08649538101517,
L_r.bmp,n,L_d.bmp,None,L_g.bmp,None,L_f.bmp,None,0.75,0.75,,,,,0,72,72,72,,,,,,,,,,,,,,,,,,,,,,,,,,,,,,,,,,,,,,,286.96039683400886,286.96039683400886,None,1,,,,,,,,,,,,,,,,,,,,,,,,,,,,,,test,001,2023-04-21_14h46.52.580,PGNGS_RST_750_english,2022.2.5,89.08649538101517,
L_c.bmp,None,L_l.bmp,None,L_r.bmp,n,L_m.bmp,None,0.75,0.75,,,,,0,73,73,73,,,,,,,,,,,,,,,,,,,,,,,,,,,,,,,,,,,,,,,287.71483679197263,287.71483679197263,None,1,,,,,,,,,,,,,,,,,,,,,,,,,,,,,,test,001,2023-04-21_14h46.52.580,PGNGS_RST_750_english,2022.2.5,89.08649538101517,
L_n.bmp,None,L_h.bmp,None,L_b.bmp,None,L_p.bmp,None,0.75,0.75,,,,,0,74,74,74,,,,,,,,,,,,,,,,,,,,,,,,,,,,,,,,,,,,,,,288.4692578749964,288.4692578749964,None,1,,,,,,,,,,,,,,,,,,,,,,,,,,,,,,test,001,2023-04-21_14h46.52.580,PGNGS_RST_750_english,2022.2.5,89.08649538101517,
L_h.bmp,None,L_l.bmp,None,L_j.bmp,None,L_l.bmp,None,0.75,0.75,,,,,0,75,75,75,,,,,,,,,,,,,,,,,,,,,,,,,,,,,,,,,,,,,,,289.21075883397134,289.21075883397134,None,1,,,,,,,,,,,,,,,,,,,,,,,,,,,,,,test,001,2023-04-21_14h46.52.580,PGNGS_RST_750_english,2022.2.5,89.08649538101517,
L_g.bmp,None,L_m.bmp,None,L_g.bmp,None,L_h.bmp,None,0.75,0.75,,,,,0,76,76,76,,,,,,,,,,,,,,,,,,,,,,,,,,,,,,,,,,,,,,,289.9601379170199,289.9601379170199,None,1,,,,,,,,,,,,,,,,,,,,,,,,,,,,,,test,001,2023-04-21_14h46.52.580,PGNGS_RST_750_english,2022.2.5,89.08649538101517,
L_l.bmp,None,L_j.bmp,None,L_v.bmp,None,L_s.bmp,n,0.75,0.75,,,,,0,77,77,77,,,,,,,,,,,,,,,,,,,,,,,,,,,,,,,,,,,,,,,290.7056759169791,290.7056759169791,None,1,,,,,,,,,,,,,,,,,,,,,,,,,,,,,,test,001,2023-04-21_14h46.52.580,PGNGS_RST_750_english,2022.2.5,89.08649538101517,
L_s.bmp,n,L_p.bmp,None,L_s.bmp,n,L_v.bmp,None,0.75,0.75,,,,,0,78,78,78,,,,,,,,,,,,,,,,,,,,,,,,,,,,,,,,,,,,,,,291.45967862498946,291.45967862498946,None,1,,,,,,,,,,,,,,,,,,,,,,,,,,,,,,test,001,2023-04-21_14h46.52.580,PGNGS_RST_750_english,2022.2.5,89.08649538101517,
L_f.bmp,None,L_b.bmp,None,L_b.bmp,None,L_p.bmp,None,0.75,0.75,,,,,0,79,79,79,,,,,,,,,,,,,,,,,,,,,,,,,,,,,,,,,,,,,,,292.20232291700086,292.20232291700086,None,1,,,,,,,,,,,,,,,,,,,,,,,,,,,,,,test,001,2023-04-21_14h46.52.580,PGNGS_RST_750_english,2022.2.5,89.08649538101517,
L_n.bmp,None,L_f.bmp,None,L_v.bmp,None,L_d.bmp,None,0.75,0.75,,,,,0,80,80,80,,,,,,,,,,,,,,,,,,,,,,,,,,,,,,,,,,,,,,,292.96467695897445,292.96467695897445,None,1,,,,,,,,,,,,,,,,,,,,,,,,,,,,,,test,001,2023-04-21_14h46.52.580,PGNGS_RST_750_english,2022.2.5,89.08649538101517,
L_w.bmp,None,L_s.bmp,n,L_h.bmp,None,L_s.bmp,None,0.75,0.75,,,,,0,81,81,81,,,,,,,,,,,,,,,,,,,,,,,,,,,,,,,,,,,,,,,293.703167959,293.703167959,n,1,0.5393180419923738,,,,,,,,,,,,,,,,,,,,,,,,,,,,,test,001,2023-04-21_14h46.52.580,PGNGS_RST_750_english,2022.2.5,89.08649538101517,
L_b.bmp,None,L_l.bmp,None,L_w.bmp,None,L_j.bmp,None,0.75,0.75,,,,,0,82,82,82,,,,,,,,,,,,,,,,,,,,,,,,,,,,,,,,,,,,,,,294.45263274997706,294.45263274997706,None,1,,,,,,,,,,,,,,,,,,,,,,,,,,,,,,test,001,2023-04-21_14h46.52.580,PGNGS_RST_750_english,2022.2.5,89.08649538101517,
L_v.bmp,None,L_j.bmp,None,L_m.bmp,None,L_d.bmp,None,0.75,0.75,,,,,0,83,83,83,,,,,,,,,,,,,,,,,,,,,,,,,,,,,,,,,,,,,,,295.20181520900223,295.20181520900223,None,1,,,,,,,,,,,,,,,,,,,,,,,,,,,,,,test,001,2023-04-21_14h46.52.580,PGNGS_RST_750_english,2022.2.5,89.08649538101517,
L_s.bmp,n,L_r.bmp,n,L_j.bmp,None,L_b.bmp,None,0.4,0.75,,,,,0,84,84,84,,,,,,,,,,,,,,,,,,,,,,,,,,,,,,,,,,,,,,,295.96697591699194,295.96697591699194,None,0,,,,,,,,,,,,,,,,,,,,,,,,,,,,,,test,001,2023-04-21_14h46.52.580,PGNGS_RST_750_english,2022.2.5,89.08649538101517,
L_q.bmp,None,L_m.bmp,None,L_m.bmp,None,L_t.bmp,n,0.35,0.75,,,,,0,85,85,85,,,,,,,,,,,,,,,,,,,,,,,,,,,,,,,,,,,,,,,296.71455670899013,296.71455670899013,n,0,0.25613662495743483,,,,,,,,,,,,,,,,,,,,,,,,,,,,,test,001,2023-04-21_14h46.52.580,PGNGS_RST_750_english,2022.2.5,89.08649538101517,
L_d.bmp,None,L_v.bmp,None,L_g.bmp,None,L_q.bmp,None,0.75,0.75,,,,,0,86,86,86,,,,,,,,,,,,,,,,,,,,,,,,,,,,,,,,,,,,,,,297.46434837498236,297.46434837498236,None,1,,,,,,,,,,,,,,,,,,,,,,,,,,,,,,test,001,2023-04-21_14h46.52.580,PGNGS_RST_750_english,2022.2.5,89.08649538101517,
L_r.bmp,n,L_d.bmp,None,L_k.bmp,None,L_m.bmp,None,0.75,0.3,,,,,0,87,87,87,,,,,,,,,,,,,,,,,,,,,,,,,,,,,,,,,,,,,,,298.2069830420078,298.2069830420078,None,1,,,,,,,,,,,,,,,,,,,,,,,,,,,,,,test,001,2023-04-21_14h46.52.580,PGNGS_RST_750_english,2022.2.5,89.08649538101517,
L_v.bmp,None,L_s.bmp,n,L_b.bmp,None,L_q.bmp,None,0.75,0.45,,,,,0,88,88,88,,,,,,,,,,,,,,,,,,,,,,,,,,,,,,,,,,,,,,,298.9552371670143,298.9552371670143,n,1,0.5657024580286816,,,,,,,,,,,,,,,,,,,,,,,,,,,,,test,001,2023-04-21_14h46.52.580,PGNGS_RST_750_english,2022.2.5,89.08649538101517,
L_c.bmp,None,L_j.bmp,None,L_r.bmp,n,L_s.bmp,n,0.75,0.75,,,,,0,89,89,89,,,,,,,,,,,,,,,,,,,,,,,,,,,,,,,,,,,,,,,299.70447724999394,299.70447724999394,None,1,,,,,,,,,,,,,,,,,,,,,,,,,,,,,,test,001,2023-04-21_14h46.52.580,PGNGS_RST_750_english,2022.2.5,89.08649538101517,
L_j.bmp,None,L_d.bmp,None,L_n.bmp,None,L_d.bmp,None,0.75,0.75,,,,,0,90,90,90,,,,,,,,,,,,,,,,,,,,,,,,,,,,,,,,,,,,,,,300.4627419169992,300.4627419169992,None,1,,,,,,,,,,,,,,,,,,,,,,,,,,,,,,test,001,2023-04-21_14h46.52.580,PGNGS_RST_750_english,2022.2.5,89.08649538101517,
L_k.bmp,None,L_b.bmp,None,L_q.bmp,None,L_w.bmp,None,0.75,0.75,,,,,0,91,91,91,,,,,,,,,,,,,,,,,,,,,,,,,,,,,,,,,,,,,,,301.2112071249867,301.2112071249867,None,1,,,,,,,,,,,,,,,,,,,,,,,,,,,,,,test,001,2023-04-21_14h46.52.580,PGNGS_RST_750_english,2022.2.5,89.08649538101517,
L_w.bmp,None,L_s.bmp,None,L_f.bmp,None,L_p.bmp,None,0.75,0.75,,,,,0,92,92,92,,,,,,,,,,,,,,,,,,,,,,,,,,,,,,,,,,,,,,,301.955768542015,301.955768542015,n,0,0.5659870409872383,,,,,,,,,,,,,,,,,,,,,,,,,,,,,test,001,2023-04-21_14h46.52.580,PGNGS_RST_750_english,2022.2.5,89.08649538101517,
L_s.bmp,n,L_q.bmp,None,L_t.bmp,n,L_f.bmp,None,0.75,0.75,,,,,0,93,93,93,,,,,,,,,,,,,,,,,,,,,,,,,,,,,,,,,,,,,,,302.7130957500194,302.7130957500194,None,1,,,,,,,,,,,,,,,,,,,,,,,,,,,,,,test,001,2023-04-21_14h46.52.580,PGNGS_RST_750_english,2022.2.5,89.08649538101517,
L_f.bmp,None,L_m.bmp,None,L_p.bmp,None,L_s.bmp,None,0.75,0.75,,,,,0,94,94,94,,,,,,,,,,,,,,,,,,,,,,,,,,,,,,,,,,,,,,,303.4533816250041,303.4533816250041,None,1,,,,,,,,,,,,,,,,,,,,,,,,,,,,,,test,001,2023-04-21_14h46.52.580,PGNGS_RST_750_english,2022.2.5,89.08649538101517,
L_m.bmp,None,L_q.bmp,None,L_k.bmp,None,L_w.bmp,None,0.75,0.75,,,,,0,95,95,95,,,,,,,,,,,,,,,,,,,,,,,,,,,,,,,,,,,,,,,304.20760112500284,304.20760112500284,None,1,,,,,,,,,,,,,,,,,,,,,,,,,,,,,,test,001,2023-04-21_14h46.52.580,PGNGS_RST_750_english,2022.2.5,89.08649538101517,
L_g.bmp,None,L_d.bmp,None,L_g.bmp,None,L_m.bmp,None,0.75,0.75,,,,,0,96,96,96,,,,,,,,,,,,,,,,,,,,,,,,,,,,,,,,,,,,,,,304.95707050000783,304.95707050000783,None,1,,,,,,,,,,,,,,,,,,,,,,,,,,,,,,test,001,2023-04-21_14h46.52.580,PGNGS_RST_750_english,2022.2.5,89.08649538101517,
L_l.bmp,None,L_r.bmp,n,L_f.bmp,None,L_t.bmp,n,0.75,0.75,,,,,0,97,97,97,,,,,,,,,,,,,,,,,,,,,,,,,,,,,,,,,,,,,,,305.70266750000883,305.70266750000883,n,1,0.4785185409709811,,,,,,,,,,,,,,,,,,,,,,,,,,,,,test,001,2023-04-21_14h46.52.580,PGNGS_RST_750_english,2022.2.5,89.08649538101517,
L_w.bmp,None,L_w.bmp,None,L_k.bmp,None,L_p.bmp,None,0.75,0.75,,,,,0,98,98,98,,,,,,,,,,,,,,,,,,,,,,,,,,,,,,,,,,,,,,,306.46819629200036,306.46819629200036,None,1,,,,,,,,,,,,,,,,,,,,,,,,,,,,,,test,001,2023-04-21_14h46.52.580,PGNGS_RST_750_english,2022.2.5,89.08649538101517,
L_h.bmp,None,L_p.bmp,None,L_q.bmp,None,L_d.bmp,None,0.75,0.75,,,,,0,99,99,99,,,,,,,,,,,,,,,,,,,,,,,,,,,,,,,,,,,,,,,307.2153990420047,307.2153990420047,None,1,,,,,,,,,,,,,,,,,,,,,,,,,,,,,,test,001,2023-04-21_14h46.52.580,PGNGS_RST_750_english,2022.2.5,89.08649538101517,
L_w.bmp,None,L_s.bmp,n,L_w.bmp,None,L_r.bmp,n,0.75,0.75,,,,,0,100,100,100,,,,,,,,,,,,,,,,,,,,,,,,,,,,,,,,,,,,,,,307.95648524997523,307.95648524997523,n,1,0.5360570419579744,,,,,,,,,,,,,,,,,,,,,,,,,,,,,test,001,2023-04-21_14h46.52.580,PGNGS_RST_750_english,2022.2.5,89.08649538101517,
L_g.bmp,None,L_f.bmp,None,L_j.bmp,None,L_m.bmp,None,0.75,0.75,,,,,0,101,101,101,,,,,,,,,,,,,,,,,,,,,,,,,,,,,,,,,,,,,,,308.71536525001284,308.71536525001284,None,1,,,,,,,,,,,,,,,,,,,,,,,,,,,,,,test,001,2023-04-21_14h46.52.580,PGNGS_RST_750_english,2022.2.5,89.08649538101517,
L_m.bmp,None,L_w.bmp,None,L_p.bmp,None,L_q.bmp,None,0.75,0.75,,,,,0,102,102,102,,,,,,,,,,,,,,,,,,,,,,,,,,,,,,,,,,,,,,,309.4567231669789,309.4567231669789,None,1,,,,,,,,,,,,,,,,,,,,,,,,,,,,,,test,001,2023-04-21_14h46.52.580,PGNGS_RST_750_english,2022.2.5,89.08649538101517,
L_w.bmp,None,L_m.bmp,None,L_g.bmp,None,L_k.bmp,None,0.75,0.75,,,,,0,103,103,103,,,,,,,,,,,,,,,,,,,,,,,,,,,,,,,,,,,,,,,310.20123795897234,310.20123795897234,None,1,,,,,,,,,,,,,,,,,,,,,,,,,,,,,,test,001,2023-04-21_14h46.52.580,PGNGS_RST_750_english,2022.2.5,89.08649538101517,
L_h.bmp,None,L_r.bmp,n,L_q.bmp,None,L_t.bmp,n,0.75,0.75,,,,,0,104,104,104,,,,,,,,,,,,,,,,,,,,,,,,,,,,,,,,,,,,,,,310.95550333400024,310.95550333400024,n,1,0.446272749977652,,,,,,,,,,,,,,,,,,,,,,,,,,,,,test,001,2023-04-21_14h46.52.580,PGNGS_RST_750_english,2022.2.5,89.08649538101517,
L_r.bmp,n,L_p.bmp,None,L_w.bmp,None,L_b.bmp,None,0.75,0.75,,,,,0,105,105,105,,,,,,,,,,,,,,,,,,,,,,,,,,,,,,,,,,,,,,,311.7161890839925,311.7161890839925,None,1,,,,,,,,,,,,,,,,,,,,,,,,,,,,,,test,001,2023-04-21_14h46.52.580,PGNGS_RST_750_english,2022.2.5,89.08649538101517,
L_b.bmp,None,L_d.bmp,None,L_d.bmp,None,L_m.bmp,None,0.75,0.75,,,,,0,106,106,106,,,,,,,,,,,,,,,,,,,,,,,,,,,,,,,,,,,,,,,312.4650099169812,312.4650099169812,None,1,,,,,,,,,,,,,,,,,,,,,,,,,,,,,,test,001,2023-04-21_14h46.52.580,PGNGS_RST_750_english,2022.2.5,89.08649538101517,
L_v.bmp,None,L_c.bmp,None,L_f.bmp,None,L_g.bmp,None,0.75,0.75,,,,,0,107,107,107,,,,,,,,,,,,,,,,,,,,,,,,,,,,,,,,,,,,,,,313.2076561250142,313.2076561250142,None,1,,,,,,,,,,,,,,,,,,,,,,,,,,,,,,test,001,2023-04-21_14h46.52.580,PGNGS_RST_750_english,2022.2.5,89.08649538101517,
L_h.bmp,None,L_s.bmp,n,L_s.bmp,n,L_t.bmp,None,0.3,0.75,,,,,0,108,108,108,,,,,,,,,,,,,,,,,,,,,,,,,,,,,,,,,,,,,,,313.9540167499799,313.9540167499799,n,1,0.4775480829994194,,,,,,,,,,,,,,,,,,,,,,,,,,,,,test,001,2023-04-21_14h46.52.580,PGNGS_RST_750_english,2022.2.5,89.08649538101517,
L_w.bmp,None,L_q.bmp,None,L_f.bmp,None,L_g.bmp,None,0.45,0.75,,,,,0,109,109,109,,,,,,,,,,,,,,,,,,,,,,,,,,,,,,,,,,,,,,,314.7128913339693,314.7128913339693,None,1,,,,,,,,,,,,,,,,,,,,,,,,,,,,,,test,001,2023-04-21_14h46.52.580,PGNGS_RST_750_english,2022.2.5,89.08649538101517,
L_m.bmp,None,L_k.bmp,None,L_n.bmp,None,L_h.bmp,None,0.75,0.75,,,,,0,110,110,110,,,,,,,,,,,,,,,,,,,,,,,,,,,,,,,,,,,,,,,315.46885208401363,315.46885208401363,None,1,,,,,,,,,,,,,,,,,,,,,,,,,,,,,,test,001,2023-04-21_14h46.52.580,PGNGS_RST_750_english,2022.2.5,89.08649538101517,
L_j.bmp,None,L_b.bmp,None,L_w.bmp,None,L_g.bmp,None,0.75,0.75,,,,,0,111,111,111,,,,,,,,,,,,,,,,,,,,,,,,,,,,,,,,,,,,,,,316.2093243339914,316.2093243339914,None,1,,,,,,,,,,,,,,,,,,,,,,,,,,,,,,test,001,2023-04-21_14h46.52.580,PGNGS_RST_750_english,2022.2.5,89.08649538101517,
L_m.bmp,None,L_r.bmp,n,L_b.bmp,None,L_p.bmp,None,0.75,0.75,,,,,0,112,112,112,,,,,,,,,,,,,,,,,,,,,,,,,,,,,,,,,,,,,,,316.9550537500181,316.9550537500181,n,1,0.44757079100236297,,,,,,,,,,,,,,,,,,,,,,,,,,,,,test,001,2023-04-21_14h46.52.580,PGNGS_RST_750_english,2022.2.5,89.08649538101517,
L_g.bmp,None,L_m.bmp,None,L_s.bmp,n,L_c.bmp,None,0.75,0.75,,,,,0,113,113,113,,,,,,,,,,,,,,,,,,,,,,,,,,,,,,,,,,,,,,,317.70564487500815,317.70564487500815,None,1,,,,,,,,,,,,,,,,,,,,,,,,,,,,,,test,001,2023-04-21_14h46.52.580,PGNGS_RST_750_english,2022.2.5,89.08649538101517,
L_k.bmp,None,L_l.bmp,None,L_v.bmp,None,L_r.bmp,n,0.75,0.75,,,,,0,114,114,114,,,,,,,,,,,,,,,,,,,,,,,,,,,,,,,,,,,,,,,318.4673716669786,318.4673716669786,None,1,,,,,,,,,,,,,,,,,,,,,,,,,,,,,,test,001,2023-04-21_14h46.52.580,PGNGS_RST_750_english,2022.2.5,89.08649538101517,
L_b.bmp,None,L_h.bmp,None,L_q.bmp,None,L_h.bmp,None,0.75,0.75,,,,,0,115,115,115,,,,,,,,,,,,,,,,,,,,,,,,,,,,,,,,,,,,,,,319.21661895897705,319.21661895897705,None,1,,,,,,,,,,,,,,,,,,,,,,,,,,,,,,test,001,2023-04-21_14h46.52.580,PGNGS_RST_750_english,2022.2.5,89.08649538101517,
L_r.bmp,n,L_g.bmp,None,L_d.bmp,None,L_d.bmp,None,0.75,0.75,,,,,0,116,116,116,,,,,,,,,,,,,,,,,,,,,,,,,,,,,,,,,,,,,,,319.9651498749736,319.9651498749736,None,1,,,,,,,,,,,,,,,,,,,,,,,,,,,,,,test,001,2023-04-21_14h46.52.580,PGNGS_RST_750_english,2022.2.5,89.08649538101517,
L_n.bmp,None,L_r.bmp,None,L_r.bmp,n,L_m.bmp,None,0.75,0.25,,,,,0,117,117,117,,,,,,,,,,,,,,,,,,,,,,,,,,,,,,,,,,,,,,,320.71499766700435,320.71499766700435,n,0,0.4076346670044586,,,,,,,,,,,,,,,,,,,,,,,,,,,,,test,001,2023-04-21_14h46.52.580,PGNGS_RST_750_english,2022.2.5,89.08649538101517,
L_q.bmp,None,L_g.bmp,None,L_v.bmp,None,L_j.bmp,None,0.75,0.5,,,,,0,118,118,118,,,,,,,,,,,,,,,,,,,,,,,,,,,,,,,,,,,,,,,321.4621672920184,321.4621672920184,None,1,,,,,,,,,,,,,,,,,,,,,,,,,,,,,,test,001,2023-04-21_14h46.52.580,PGNGS_RST_750_english,2022.2.5,89.08649538101517,
L_f.bmp,None,L_p.bmp,None,L_c.bmp,None,L_p.bmp,None,0.75,0.75,,,,,0,119,119,119,,,,,,,,,,,,,,,,,,,,,,,,,,,,,,,,,,,,,,,322.20700837497134,322.20700837497134,None,1,,,,,,,,,,,,,,,,,,,,,,,,,,,,,,test,001,2023-04-21_14h46.52.580,PGNGS_RST_750_english,2022.2.5,89.08649538101517,
L_r.bmp,n,L_c.bmp,None,L_j.bmp,None,L_b.bmp,None,0.75,0.75,,,,,0,120,120,120,,,,,,,,,,,,,,,,,,,,,,,,,,,,,,,,,,,,,,,322.9551593749784,322.9551593749784,None,1,,,,,,,,,,,,,,,,,,,,,,,,,,,,,,test,001,2023-04-21_14h46.52.580,PGNGS_RST_750_english,2022.2.5,89.08649538101517,
L_p.bmp,None,L_s.bmp,n,L_k.bmp,None,L_s.bmp,n,0.25,0.75,,,,,0,121,121,121,,,,,,,,,,,,,,,,,,,,,,,,,,,,,,,,,,,,,,,323.7113897500094,323.7113897500094,n,1,0.5299394589965232,,,,,,,,,,,,,,,,,,,,,,,,,,,,,test,001,2023-04-21_14h46.52.580,PGNGS_RST_750_english,2022.2.5,89.08649538101517,
L_k.bmp,None,L_g.bmp,None,L_w.bmp,None,L_b.bmp,None,0.5,0.75,,,,,0,122,122,122,,,,,,,,,,,,,,,,,,,,,,,,,,,,,,,,,,,,,,,324.4551690419903,324.4551690419903,None,1,,,,,,,,,,,,,,,,,,,,,,,,,,,,,,test,001,2023-04-21_14h46.52.580,PGNGS_RST_750_english,2022.2.5,89.08649538101517,
L_s.bmp,n,L_h.bmp,None,L_t.bmp,n,L_f.bmp,None,0.75,0.75,,,,,0,123,123,123,,,,,,,,,,,,,,,,,,,,,,,,,,,,,,,,,,,,,,,325.2164185839938,325.2164185839938,None,1,,,,,,,,,,,,,,,,,,,,,,,,,,,,,,test,001,2023-04-21_14h46.52.580,PGNGS_RST_750_english,2022.2.5,89.08649538101517,
L_f.bmp,None,L_m.bmp,None,L_f.bmp,None,L_r.bmp,n,0.75,0.75,,,,,0,124,124,124,,,,,,,,,,,,,,,,,,,,,,,,,,,,,,,,,,,,,,,325.96749712497694,325.96749712497694,None,1,,,,,,,,,,,,,,,,,,,,,,,,,,,,,,test,001,2023-04-21_14h46.52.580,PGNGS_RST_750_english,2022.2.5,89.08649538101517,
L_g.bmp,None,L_j.bmp,None,L_m.bmp,None,L_w.bmp,None,0.75,0.75,,,,,0,125,125,125,,,,,,,,,,,,,,,,,,,,,,,,,,,,,,,,,,,,,,,326.70884658402065,326.70884658402065,None,1,,,,,,,,,,,,,,,,,,,,,,,,,,,,,,test,001,2023-04-21_14h46.52.580,PGNGS_RST_750_english,2022.2.5,89.08649538101517,
L_k.bmp,None,L_p.bmp,None,L_g.bmp,None,L_h.bmp,None,0.75,0.75,,,,,0,126,126,126,,,,,,,,,,,,,,,,,,,,,,,,,,,,,,,,,,,,,,,327.46280854201177,327.46280854201177,None,1,,,,,,,,,,,,,,,,,,,,,,,,,,,,,,test,001,2023-04-21_14h46.52.580,PGNGS_RST_750_english,2022.2.5,89.08649538101517,
L_w.bmp,None,L_b.bmp,None,L_l.bmp,None,L_k.bmp,None,0.75,0.75,,,,,0,127,127,127,,,,,,,,,,,,,,,,,,,,,,,,,,,,,,,,,,,,,,,328.20881033397745,328.20881033397745,None,1,,,,,,,,,,,,,,,,,,,,,,,,,,,,,,test,001,2023-04-21_14h46.52.580,PGNGS_RST_750_english,2022.2.5,89.08649538101517,
L_j.bmp,None,L_s.bmp,None,L_w.bmp,None,L_r.bmp,None,0.75,0.75,,,,,0,128,128,128,,,,,,,,,,,,,,,,,,,,,,,,,,,,,,,,,,,,,,,328.95537958398927,328.95537958398927,None,1,,,,,,,,,,,,,,,,,,,,,,,,,,,,,,test,001,2023-04-21_14h46.52.580,PGNGS_RST_750_english,2022.2.5,89.08649538101517,
L_p.bmp,None,L_g.bmp,None,L_h.bmp,None,L_q.bmp,None,0.75,0.75,,,,,0,129,129,129,,,,,,,,,,,,,,,,,,,,,,,,,,,,,,,,,,,,,,,329.7066420419724,329.7066420419724,None,1,,,,,,,,,,,,,,,,,,,,,,,,,,,,,,test,001,2023-04-21_14h46.52.580,PGNGS_RST_750_english,2022.2.5,89.08649538101517,
L_g.bmp,None,L_b.bmp,None,L_w.bmp,None,L_d.bmp,None,0.75,0.75,,,,,0,130,130,130,,,,,,,,,,,,,,,,,,,,,,,,,,,,,,,,,,,,,,,330.458698500006,330.458698500006,None,1,,,,,,,,,,,,,,,,,,,,,,,,,,,,,,test,001,2023-04-21_14h46.52.580,PGNGS_RST_750_english,2022.2.5,89.08649538101517,
L_q.bmp,None,L_w.bmp,None,L_g.bmp,None,L_l.bmp,None,0.75,0.75,,,,,0,131,131,131,,,,,,,,,,,,,,,,,,,,,,,,,,,,,,,,,,,,,,,331.2151215840131,331.2151215840131,None,1,,,,,,,,,,,,,,,,,,,,,,,,,,,,,,test,001,2023-04-21_14h46.52.580,PGNGS_RST_750_english,2022.2.5,89.08649538101517,
L_w.bmp,None,L_r.bmp,n,L_m.bmp,None,L_j.bmp,None,0.75,0.75,,,,,0,132,132,132,,,,,,,,,,,,,,,,,,,,,,,,,,,,,,,,,,,,,,,331.95735974999843,331.95735974999843,n,1,0.5056182499974966,,,,,,,,,,,,,,,,,,,,,,,,,,,,,test,001,2023-04-21_14h46.52.580,PGNGS_RST_750_english,2022.2.5,89.08649538101517,
L_d.bmp,None,L_b.bmp,None,L_w.bmp,None,L_f.bmp,None,0.75,0.75,,,,,0,133,133,133,,,,,,,,,,,,,,,,,,,,,,,,,,,,,,,,,,,,,,,332.70751258399105,332.70751258399105,None,1,,,,,,,,,,,,,,,,,,,,,,,,,,,,,,test,001,2023-04-21_14h46.52.580,PGNGS_RST_750_english,2022.2.5,89.08649538101517,
L_f.bmp,None,L_k.bmp,None,L_h.bmp,None,L_s.bmp,n,0.75,0.75,,,,,0,134,134,134,,,,,,,,,,,,,,,,,,,,,,,,,,,,,,,,,,,,,,,333.45661612501135,333.45661612501135,None,1,,,,,,,,,,,,,,,,,,,,,,,,,,,,,,test,001,2023-04-21_14h46.52.580,PGNGS_RST_750_english,2022.2.5,89.08649538101517,
L_s.bmp,n,L_g.bmp,None,L_r.bmp,n,L_b.bmp,None,0.75,0.75,,,,,0,135,135,135,,,,,,,,,,,,,,,,,,,,,,,,,,,,,,,,,,,,,,,334.2080774999922,334.2080774999922,None,1,,,,,,,,,,,,,,,,,,,,,,,,,,,,,,test,001,2023-04-21_14h46.52.580,PGNGS_RST_750_english,2022.2.5,89.08649538101517,
L_j.bmp,None,L_s.bmp,n,L_j.bmp,None,L_p.bmp,None,0.75,0.75,,,,,0,136,136,136,,,,,,,,,,,,,,,,,,,,,,,,,,,,,,,,,,,,,,,334.96080387500115,334.96080387500115,n,1,0.5020460829837248,,,,,,,,,,,,,,,,,,,,,,,,,,,,,test,001,2023-04-21_14h46.52.580,PGNGS_RST_750_english,2022.2.5,89.08649538101517,
L_k.bmp,None,L_g.bmp,None,L_k.bmp,None,L_w.bmp,None,0.75,0.75,,,,,0,137,137,137,,,,,,,,,,,,,,,,,,,,,,,,,,,,,,,,,,,,,,,335.71749274997273,335.71749274997273,None,1,,,,,,,,,,,,,,,,,,,,,,,,,,,,,,test,001,2023-04-21_14h46.52.580,PGNGS_RST_750_english,2022.2.5,89.08649538101517,
L_r.bmp,n,L_b.bmp,None,L_r.bmp,n,L_f.bmp,None,0.75,0.25,,,,,0,138,138,138,,,,,,,,,,,,,,,,,,,,,,,,,,,,,,,,,,,,,,,336.4584281669813,336.4584281669813,None,1,,,,,,,,,,,,,,,,,,,,,,,,,,,,,,test,001,2023-04-21_14h46.52.580,PGNGS_RST_750_english,2022.2.5,89.08649538101517,
L_k.bmp,None,L_r.bmp,n,L_k.bmp,None,L_k.bmp,None,0.75,0.5,,,,,0,139,139,139,,,,,,,,,,,,,,,,,,,,,,,,,,,,,,,,,,,,,,,337.21609870897373,337.21609870897373,n,1,0.6156527909915894,,,,,,,,,,,,,,,,,,,,,,,,,,,,,test,001,2023-04-21_14h46.52.580,PGNGS_RST_750_english,2022.2.5,89.08649538101517,
L_f.bmp,None,L_j.bmp,None,L_f.bmp,None,L_p.bmp,None,0.75,0.75,,,,,0,140,140,140,,,,,,,,,,,,,,,,,,,,,,,,,,,,,,,,,,,,,,,337.95371400000295,337.95371400000295,None,1,,,,,,,,,,,,,,,,,,,,,,,,,,,,,,test,001,2023-04-21_14h46.52.580,PGNGS_RST_750_english,2022.2.5,89.08649538101517,
L_l.bmp,None,L_b.bmp,None,L_l.bmp,None,L_t.bmp,n,0.75,0.75,,,,,0,141,141,141,,,,,,,,,,,,,,,,,,,,,,,,,,,,,,,,,,,,,,,338.7078868339886,338.7078868339886,None,1,,,,,,,,,,,,,,,,,,,,,,,,,,,,,,test,001,2023-04-21_14h46.52.580,PGNGS_RST_750_english,2022.2.5,89.08649538101517,
L_s.bmp,n,L_s.bmp,n,L_t.bmp,n,L_l.bmp,None,0.75,0.75,,,,,0,142,142,142,,,,,,,,,,,,,,,,,,,,,,,,,,,,,,,,,,,,,,,339.46452537499135,339.46452537499135,n,1,0.6478605410084128,,,,,,,,,,,,,,,,,,,,,,,,,,,,,test,001,2023-04-21_14h46.52.580,PGNGS_RST_750_english,2022.2.5,89.08649538101517,
L_n.bmp,None,L_n.bmp,None,L_n.bmp,None,L_b.bmp,None,0.75,0.75,,,,,0,143,143,143,,,,,,,,,,,,,,,,,,,,,,,,,,,,,,,,,,,,,,,340.2161816249718,340.2161816249718,None,1,,,,,,,,,,,,,,,,,,,,,,,,,,,,,,test,001,2023-04-21_14h46.52.580,PGNGS_RST_750_english,2022.2.5,89.08649538101517,
L_d.bmp,None,L_j.bmp,None,L_d.bmp,None,L_h.bmp,None,0.75,0.75,,,,,0,144,144,144,,,,,,,,,,,,,,,,,,,,,,,,,,,,,,,,,,,,,,,340.95300929201767,340.95300929201767,None,1,,,,,,,,,,,,,,,,,,,,,,,,,,,,,,test,001,2023-04-21_14h46.52.580,PGNGS_RST_750_english,2022.2.5,89.08649538101517,
L_s.bmp,n,L_h.bmp,None,L_s.bmp,n,L_c.bmp,None,0.75,0.75,,,,,0,145,145,145,,,,,,,,,,,,,,,,,,,,,,,,,,,,,,,,,,,,,,,341.7097176249954,341.7097176249954,None,1,,,,,,,,,,,,,,,,,,,,,,,,,,,,,,test,001,2023-04-21_14h46.52.580,PGNGS_RST_750_english,2022.2.5,89.08649538101517,
L_v.bmp,None,L_m.bmp,None,L_v.bmp,None,L_m.bmp,None,0.75,0.75,,,,,0,146,146,146,,,,,,,,,,,,,,,,,,,,,,,,,,,,,,,,,,,,,,,342.4592927499907,342.4592927499907,None,1,,,,,,,,,,,,,,,,,,,,,,,,,,,,,,test,001,2023-04-21_14h46.52.580,PGNGS_RST_750_english,2022.2.5,89.08649538101517,
L_f.bmp,None,L_q.bmp,None,L_f.bmp,None,L_j.bmp,None,0.75,0.75,,,,,0,147,147,147,,,,,,,,,,,,,,,,,,,,,,,,,,,,,,,,,,,,,,,343.2120857089758,343.2120857089758,None,1,,,,,,,,,,,,,,,,,,,,,,,,,,,,,,test,001,2023-04-21_14h46.52.580,PGNGS_RST_750_english,2022.2.5,89.08649538101517,
L_w.bmp,None,L_b.bmp,None,L_w.bmp,None,L_p.bmp,None,0.75,0.75,,,,,0,148,148,148,,,,,,,,,,,,,,,,,,,,,,,,,,,,,,,,,,,,,,,343.9667382920161,343.9667382920161,None,1,,,,,,,,,,,,,,,,,,,,,,,,,,,,,,test,001,2023-04-21_14h46.52.580,PGNGS_RST_750_english,2022.2.5,89.08649538101517,
L_q.bmp,None,L_g.bmp,None,L_q.bmp,None,L_b.bmp,None,0.25,0.75,,,,,0,149,149,149,,,,,,,,,,,,,,,,,,,,,,,,,,,,,,,,,,,,,,,344.7050364589668,344.7050364589668,None,1,,,,,,,,,,,,,,,,,,,,,,,,,,,,,,test,001,2023-04-21_14h46.52.580,PGNGS_RST_750_english,2022.2.5,89.08649538101517,
L_k.bmp,None,L_r.bmp,n,L_k.bmp,None,L_f.bmp,None,0.5,0.75,,,,,0,150,150,150,,,,,,,,,,,,,,,,,,,,,,,,,,,,,,,,,,,,,,,345.46186983399093,345.46186983399093,n,1,0.5010702079744078,,,,,,,,,,,,,,,,,,,,,,,,,,,,,test,001,2023-04-21_14h46.52.580,PGNGS_RST_750_english,2022.2.5,89.08649538101517,
L_b.bmp,None,L_j.bmp,None,L_b.bmp,None,L_l.bmp,None,0.75,0.75,,,,,0,151,151,151,,,,,,,,,,,,,,,,,,,,,,,,,,,,,,,,,,,,,,,346.21700449998025,346.21700449998025,None,1,,,,,,,,,,,,,,,,,,,,,,,,,,,,,,test,001,2023-04-21_14h46.52.580,PGNGS_RST_750_english,2022.2.5,89.08649538101517,
L_f.bmp,None,L_f.bmp,None,L_j.bmp,None,L_v.bmp,None,0.75,0.75,,,,,0,152,152,152,,,,,,,,,,,,,,,,,,,,,,,,,,,,,,,,,,,,,,,346.9542187919724,346.9542187919724,None,1,,,,,,,,,,,,,,,,,,,,,,,,,,,,,,test,001,2023-04-21_14h46.52.580,PGNGS_RST_750_english,2022.2.5,89.08649538101517,
L_j.bmp,None,L_v.bmp,None,L_c.bmp,None,L_j.bmp,None,0.75,0.75,,,,,0,153,153,153,,,,,,,,,,,,,,,,,,,,,,,,,,,,,,,,,,,,,,,347.71008537500165,347.71008537500165,None,1,,,,,,,,,,,,,,,,,,,,,,,,,,,,,,test,001,2023-04-21_14h46.52.580,PGNGS_RST_750_english,2022.2.5,89.08649538101517,
L_s.bmp,n,L_f.bmp,None,L_s.bmp,n,L_t.bmp,None,0.75,0.75,,,,,0,154,154,154,,,,,,,,,,,,,,,,,,,,,,,,,,,,,,,,,,,,,,,348.4544372499804,348.4544372499804,None,1,,,,,,,,,,,,,,,,,,,,,,,,,,,,,,test,001,2023-04-21_14h46.52.580,PGNGS_RST_750_english,2022.2.5,89.08649538101517,
L_b.bmp,None,L_g.bmp,None,L_b.bmp,None,L_m.bmp,None,0.75,0.75,,,,,0,155,155,155,,,,,,,,,,,,,,,,,,,,,,,,,,,,,,,,,,,,,,,349.2114530419931,349.2114530419931,None,1,,,,,,,,,,,,,,,,,,,,,,,,,,,,,,test,001,2023-04-21_14h46.52.580,PGNGS_RST_750_english,2022.2.5,89.08649538101517,
L_q.bmp,None,L_h.bmp,None,L_q.bmp,None,L_k.bmp,None,0.75,0.75,,,,,0,156,156,156,,,,,,,,,,,,,,,,,,,,,,,,,,,,,,,,,,,,,,,349.9559995419695,349.9559995419695,None,1,,,,,,,,,,,,,,,,,,,,,,,,,,,,,,test,001,2023-04-21_14h46.52.580,PGNGS_RST_750_english,2022.2.5,89.08649538101517,
L_m.bmp,None,L_b.bmp,None,L_m.bmp,None,L_b.bmp,None,0.75,0.75,,,,,0,157,157,157,,,,,,,,,,,,,,,,,,,,,,,,,,,,,,,,,,,,,,,350.71283408399904,350.71283408399904,None,1,,,,,,,,,,,,,,,,,,,,,,,,,,,,,,test,001,2023-04-21_14h46.52.580,PGNGS_RST_750_english,2022.2.5,89.08649538101517,
L_q.bmp,None,L_v.bmp,None,L_q.bmp,None,L_s.bmp,n,0.75,0.75,,,,,0,158,158,158,,,,,,,,,,,,,,,,,,,,,,,,,,,,,,,,,,,,,,,351.4579027919681,351.4579027919681,None,1,,,,,,,,,,,,,,,,,,,,,,,,,,,,,,test,001,2023-04-21_14h46.52.580,PGNGS_RST_750_english,2022.2.5,89.08649538101517,
L_f.bmp,None,L_c.bmp,None,L_f.bmp,None,L_b.bmp,None,0.75,0.75,,,,,0,159,159,159,,,,,,,,,,,,,,,,,,,,,,,,,,,,,,,,,,,,,,,352.21722383401357,352.21722383401357,None,1,,,,,,,,,,,,,,,,,,,,,,,,,,,,,,test,001,2023-04-21_14h46.52.580,PGNGS_RST_750_english,2022.2.5,89.08649538101517,
L_j.bmp,None,L_l.bmp,None,L_j.bmp,None,L_d.bmp,None,0.75,0.3,,,,,0,160,160,160,,,,,,,,,,,,,,,,,,,,,,,,,,,,,,,,,,,,,,,352.9546374169877,352.9546374169877,None,1,,,,,,,,,,,,,,,,,,,,,,,,,,,,,,test,001,2023-04-21_14h46.52.580,PGNGS_RST_750_english,2022.2.5,89.08649538101517,
L_m.bmp,None,L_m.bmp,None,L_m.bmp,None,L_v.bmp,None,0.3,0.45,,,,,0,161,161,161,,,,,,,,,,,,,,,,,,,,,,,,,,,,,,,,,,,,,,,353.71039954200387,353.71039954200387,None,1,,,,,,,,,,,,,,,,,,,,,,,,,,,,,,test,001,2023-04-21_14h46.52.580,PGNGS_RST_750_english,2022.2.5,89.08649538101517,
L_b.bmp,None,L_n.bmp,None,L_b.bmp,None,L_b.bmp,None,0.45,0.75,,,,,0,162,162,162,,,,,,,,,,,,,,,,,,,,,,,,,,,,,,,,,,,,,,,354.4558012500056,354.4558012500056,None,1,,,,,,,,,,,,,,,,,,,,,,,,,,,,,,test,001,2023-04-21_14h46.52.580,PGNGS_RST_750_english,2022.2.5,89.08649538101517,
L_w.bmp,None,L_p.bmp,None,L_m.bmp,None,L_n.bmp,None,0.75,0.75,,,,,0,163,163,163,,,,,,,,,,,,,,,,,,,,,,,,,,,,,,,,,,,,,,,355.2059652499738,355.2059652499738,None,1,,,,,,,,,,,,,,,,,,,,,,,,,,,,,,test,001,2023-04-21_14h46.52.580,PGNGS_RST_750_english,2022.2.5,89.08649538101517,
L_m.bmp,None,L_v.bmp,None,L_b.bmp,None,L_c.bmp,None,0.75,0.75,,,,,0,164,164,164,,,,,,,,,,,,,,,,,,,,,,,,,,,,,,,,,,,,,,,355.9566513749887,355.9566513749887,None,1,,,,,,,,,,,,,,,,,,,,,,,,,,,,,,test,001,2023-04-21_14h46.52.580,PGNGS_RST_750_english,2022.2.5,89.08649538101517,
L_n.bmp,None,L_p.bmp,None,L_n.bmp,None,L_p.bmp,None,0.75,0.75,,,,,0,165,165,165,,,,,,,,,,,,,,,,,,,,,,,,,,,,,,,,,,,,,,,356.70947862497997,356.70947862497997,None,1,,,,,,,,,,,,,,,,,,,,,,,,,,,,,,test,001,2023-04-21_14h46.52.580,PGNGS_RST_750_english,2022.2.5,89.08649538101517,
L_f.bmp,None,L_r.bmp,None,L_f.bmp,None,L_f.bmp,None,0.75,0.75,,,,,0,166,166,166,,,,,,,,,,,,,,,,,,,,,,,,,,,,,,,,,,,,,,,357.46062391699525,357.46062391699525,n,0,0.5923218749812804,,,,,,,,,,,,,,,,,,,,,,,,,,,,,test,001,2023-04-21_14h46.52.580,PGNGS_RST_750_english,2022.2.5,89.08649538101517,
L_m.bmp,None,L_l.bmp,None,L_m.bmp,None,L_p.bmp,None,0.75,0.75,,,,,0,167,167,167,,,,,,,,,,,,,,,,,,,,,,,,,,,,,,,,,,,,,,,358.21309166698484,358.21309166698484,None,1,,,,,,,,,,,,,,,,,,,,,,,,,,,,,,test,001,2023-04-21_14h46.52.580,PGNGS_RST_750_english,2022.2.5,89.08649538101517,
None,None,L_q.bmp,None,None,None,L_t.bmp,n,0.75,0.75,,,,,0,168,168,168,,,,,,,,,,,,,,,,,,,,,,,,,,,,,,,,,,,,,,,358.96513766696444,358.96513766696444,None,1,,,,,,,,,,,,,,,,,,,,,,,,,,,,,,test,001,2023-04-21_14h46.52.580,PGNGS_RST_750_english,2022.2.5,89.08649538101517,
None,None,L_g.bmp,None,None,None,L_q.bmp,None,0.75,0.75,,,,,0,169,169,169,,,,,,,,,,,,,,,,,,,,,,,,,,,,,,,,,,,,,,,359.70534595899517,359.70534595899517,None,1,,,,,,,,,,,,,,,,,,,,,,,,,,,,,,test,001,2023-04-21_14h46.52.580,PGNGS_RST_750_english,2022.2.5,89.08649538101517,
None,None,L_s.bmp,n,None,None,L_v.bmp,None,0.75,0.75,,,,,0,170,170,170,,,,,,,,,,,,,,,,,,,,,,,,,,,,,,,,,,,,,,,360.4584377919673,360.4584377919673,n,1,0.578622583008837,,,,,,,,,,,,,,,,,,,,,,,,,,,,,test,001,2023-04-21_14h46.52.580,PGNGS_RST_750_english,2022.2.5,89.08649538101517,
None,None,L_b.bmp,None,None,None,L_s.bmp,n,0.75,0.75,,,,,0,171,171,171,,,,,,,,,,,,,,,,,,,,,,,,,,,,,,,,,,,,,,,361.2069223339786,361.2069223339786,None,1,,,,,,,,,,,,,,,,,,,,,,,,,,,,,,test,001,2023-04-21_14h46.52.580,PGNGS_RST_750_english,2022.2.5,89.08649538101517,
None,None,L_j.bmp,None,None,None,L_m.bmp,None,0.75,0.75,,,,,0,172,172,172,,,,,,,,,,,,,,,,,,,,,,,,,,,,,,,,,,,,,,,361.9655457090121,361.9655457090121,None,1,,,,,,,,,,,,,,,,,,,,,,,,,,,,,,test,001,2023-04-21_14h46.52.580,PGNGS_RST_750_english,2022.2.5,89.08649538101517,
None,None,L_g.bmp,None,None,None,L_h.bmp,None,0.75,0.75,,,,,0,173,173,173,,,,,,,,,,,,,,,,,,,,,,,,,,,,,,,,,,,,,,,362.7115585419815,362.7115585419815,None,1,,,,,,,,,,,,,,,,,,,,,,,,,,,,,,test,001,2023-04-21_14h46.52.580,PGNGS_RST_750_english,2022.2.5,89.08649538101517,
None,None,L_r.bmp,n,None,None,L_b.bmp,None,0.75,0.75,,,,,0,174,174,174,,,,,,,,,,,,,,,,,,,,,,,,,,,,,,,,,,,,,,,363.4641607920057,363.4641607920057,n,1,0.6793428329983726,,,,,,,,,,,,,,,,,,,,,,,,,,,,,test,001,2023-04-21_14h46.52.580,PGNGS_RST_750_english,2022.2.5,89.08649538101517,
None,None,L_v.bmp,None,None,None,L_m.bmp,None,0.75,0.75,,,,,0,175,175,175,,,,,,,,,,,,,,,,,,,,,,,,,,,,,,,,,,,,,,,364.20505337498616,364.20505337498616,None,1,,,,,,,,,,,,,,,,,,,,,,,,,,,,,,test,001,2023-04-21_14h46.52.580,PGNGS_RST_750_english,2022.2.5,89.08649538101517,
None,None,L_m.bmp,None,None,None,L_q.bmp,None,0.75,0.75,,,,,0,176,176,176,,,,,,,,,,,,,,,,,,,,,,,,,,,,,,,,,,,,,,,364.9596136669861,364.9596136669861,None,1,,,,,,,,,,,,,,,,,,,,,,,,,,,,,,test,001,2023-04-21_14h46.52.580,PGNGS_RST_750_english,2022.2.5,89.08649538101517,
None,None,L_b.bmp,None,None,None,L_s.bmp,None,0.75,0.75,,,,,0,177,177,177,,,,,,,,,,,,,,,,,,,,,,,,,,,,,,,,,,,,,,,365.7070933749783,365.7070933749783,None,1,,,,,,,,,,,,,,,,,,,,,,,,,,,,,,test,001,2023-04-21_14h46.52.580,PGNGS_RST_750_english,2022.2.5,89.08649538101517,
None,None,L_r.bmp,None,None,None,L_v.bmp,None,0.75,0.75,,,,,0,178,178,178,,,,,,,,,,,,,,,,,,,,,,,,,,,,,,,,,,,,,,,366.4642540420173,366.4642540420173,None,1,,,,,,,,,,,,,,,,,,,,,,,,,,,,,,test,001,2023-04-21_14h46.52.580,PGNGS_RST_750_english,2022.2.5,89.08649538101517,
None,None,L_b.bmp,None,None,None,L_l.bmp,None,0.75,0.75,,,,,0,179,179,179,,,,,,,,,,,,,,,,,,,,,,,,,,,,,,,,,,,,,,,367.20895399997244,367.20895399997244,None,1,,,,,,,,,,,,,,,,,,,,,,,,,,,,,,test,001,2023-04-21_14h46.52.580,PGNGS_RST_750_english,2022.2.5,89.08649538101517,
None,None,L_d.bmp,None,None,None,L_r.bmp,n,0.75,0.75,,,,,0,180,180,180,,,,,,,,,,,,,,,,,,,,,,,,,,,,,,,,,,,,,,,367.9663032090175,367.9663032090175,None,1,,,,,,,,,,,,,,,,,,,,,,,,,,,,,,test,001,2023-04-21_14h46.52.580,PGNGS_RST_750_english,2022.2.5,89.08649538101517,
None,None,L_v.bmp,None,None,None,L_j.bmp,None,0.75,0.75,,,,,0,181,181,181,,,,,,,,,,,,,,,,,,,,,,,,,,,,,,,,,,,,,,,368.71189020900056,368.71189020900056,None,1,,,,,,,,,,,,,,,,,,,,,,,,,,,,,,test,001,2023-04-21_14h46.52.580,PGNGS_RST_750_english,2022.2.5,89.08649538101517,
None,None,L_b.bmp,None,None,None,L_g.bmp,None,0.75,0.75,,,,,0,182,182,182,,,,,,,,,,,,,,,,,,,,,,,,,,,,,,,,,,,,,,,369.4514851249987,369.4514851249987,None,1,,,,,,,,,,,,,,,,,,,,,,,,,,,,,,test,001,2023-04-21_14h46.52.580,PGNGS_RST_750_english,2022.2.5,89.08649538101517,
None,None,L_n.bmp,None,None,None,L_f.bmp,None,0.75,0.75,,,,,0,183,183,183,,,,,,,,,,,,,,,,,,,,,,,,,,,,,,,,,,,,,,,370.21708666702034,370.21708666702034,None,1,,,,,,,,,,,,,,,,,,,,,,,,,,,,,,test,001,2023-04-21_14h46.52.580,PGNGS_RST_750_english,2022.2.5,89.08649538101517,
None,None,L_c.bmp,None,None,None,L_d.bmp,None,0.25,0.75,,,,,0,184,184,184,,,,,,,,,,,,,,,,,,,,,,,,,,,,,,,,,,,,,,,370.96177891700063,370.96177891700063,None,1,,,,,,,,,,,,,,,,,,,,,,,,,,,,,,test,001,2023-04-21_14h46.52.580,PGNGS_RST_750_english,2022.2.5,89.08649538101517,
None,None,L_p.bmp,None,None,None,L_k.bmp,None,0.5,0.75,,,,,0,185,185,185,,,,,,,,,,,,,,,,,,,,,,,,,,,,,,,,,,,,,,,371.708279124985,371.708279124985,None,1,,,,,,,,,,,,,,,,,,,,,,,,,,,,,,test,001,2023-04-21_14h46.52.580,PGNGS_RST_750_english,2022.2.5,89.08649538101517,
None,None,L_f.bmp,None,None,None,L_c.bmp,None,0.75,0.25,,,,,0,186,186,186,,,,,,,,,,,,,,,,,,,,,,,,,,,,,,,,,,,,,,,372.4577881669975,372.4577881669975,None,1,,,,,,,,,,,,,,,,,,,,,,,,,,,,,,test,001,2023-04-21_14h46.52.580,PGNGS_RST_750_english,2022.2.5,89.08649538101517,
None,None,L_p.bmp,None,None,None,L_n.bmp,None,0.75,0.5,,,,,0,187,187,187,,,,,,,,,,,,,,,,,,,,,,,,,,,,,,,,,,,,,,,373.2138794590137,373.2138794590137,None,1,,,,,,,,,,,,,,,,,,,,,,,,,,,,,,test,001,2023-04-21_14h46.52.580,PGNGS_RST_750_english,2022.2.5,89.08649538101517,
None,None,L_s.bmp,n,None,None,L_h.bmp,None,0.75,0.75,,,,,0,188,188,188,,,,,,,,,,,,,,,,,,,,,,,,,,,,,,,,,,,,,,,373.9561547919875,373.9561547919875,n,1,0.44710358302108943,,,,,,,,,,,,,,,,,,,,,,,,,,,,,test,001,2023-04-21_14h46.52.580,PGNGS_RST_750_english,2022.2.5,89.08649538101517,
None,None,L_d.bmp,None,None,None,L_g.bmp,None,0.75,0.75,,,,,0,189,189,189,,,,,,,,,,,,,,,,,,,,,,,,,,,,,,,,,,,,,,,374.7111542089842,374.7111542089842,None,1,,,,,,,,,,,,,,,,,,,,,,,,,,,,,,test,001,2023-04-21_14h46.52.580,PGNGS_RST_750_english,2022.2.5,89.08649538101517,
None,None,L_q.bmp,None,None,None,L_t.bmp,n,0.75,0.75,,,,,0,190,190,190,,,,,,,,,,,,,,,,,,,,,,,,,,,,,,,,,,,,,,,375.464506792021,375.464506792021,None,1,,,,,,,,,,,,,,,,,,,,,,,,,,,,,,test,001,2023-04-21_14h46.52.580,PGNGS_RST_750_english,2022.2.5,89.08649538101517,
None,None,L_m.bmp,None,None,None,L_l.bmp,None,0.75,0.75,,,,,0,191,191,191,,,,,,,,,,,,,,,,,,,,,,,,,,,,,,,,,,,,,,,376.2115693750093,376.2115693750093,None,1,,,,,,,,,,,,,,,,,,,,,,,,,,,,,,test,001,2023-04-21_14h46.52.580,PGNGS_RST_750_english,2022.2.5,89.08649538101517,
