stimuli_1,correct_resp1,stimuli_2,correct_resp2,stimuli_3,correct_resp3,stimuli_4,correct_resp4,stimuli_5,correct_resp5,stimuli_5_reversed,correct_resp5_reversed,stimuli_6,correct_resp6,time_3,time_6,PGNGS_B1.thisRepN,PGNGS_B1.thisTrialN,PGNGS_B1.thisN,PGNGS_B1.thisIndex,PGNGS_B2.thisRepN,PGNGS_B2.thisTrialN,PGNGS_B2.thisN,PGNGS_B2.thisIndex,PGNGS_B3.thisRepN,PGNGS_B3.thisTrialN,PGNGS_B3.thisN,PGNGS_B3.thisIndex,PGNGS_B4.thisRepN,PGNGS_B4.thisTrialN,PGNGS_B4.thisN,PGNGS_B4.thisIndex,PGNGS_B5.thisRepN,PGNGS_B5.thisTrialN,PGNGS_B5.thisN,PGNGS_B5.thisIndex,inst_mov.started,key_resp.started,instruct_i1.started,instruct_i1.stopped,insti_resp.started,instruct_i2.started,inst_t1_1.started,inst_t1_1.stopped,inst_t1_2.started,inst_t1_2.stopped,inst1_resp.started,inst_t1_3.started,crosshair.started,block1_resp.started,block1_stim.started,block1_resp.keys,block1_resp.corr,block1_resp.rt,block1_resp.stopped,block1_stim.stopped,f1_response.started,fin_1t.started,inst_t2_1.started,inst_t2_1.stopped,inst_t2_2.started,inst_t2_2.stopped,inst_t2_3.started,inst_t2_3.stopped,inst_t2_4.started,inst_t2_4.stopped,inst2_resp.started,inst_t2_5.started,crosshair.stopped,block2_resp.started,block2_stim.started,block2_resp.keys,block2_resp.corr,block2_resp.rt,block2_resp.stopped,block2_stim.stopped,f2_resp.started,fin_2t.started,inst_t4_1.started,inst_t4_1.stopped,inst_t4_2.started,inst_t4_2.stopped,inst4_resp.started,inst_t4_3.started,block4_resp.started,block4_stim.started,block4_resp.keys,block4_resp.corr,block4_resp.rt,block4_resp.stopped,block4_stim.stopped,f4_resp.started,fin_4t.started,inst_t5_1.started,inst_t5_1.stopped,inst_t5_2.started,inst_t5_2.stopped,inst5_resp.started,inst_t5_3.started,block5_resp.started,block5_stim.started,block5_resp.keys,block5_resp.corr,block5_resp.rt,block5_resp.stopped,block5_stim.stopped,f5_resp.started,fin_5t.started,participant,session,date,expName,psychopyVersion,frameRate,
L_b.bmp,None,L_n.bmp,None,L_n.bmp,None,L_m.bmp,None,L_v.bmp,None,L_d.bmp,None,L_k.bmp,None,0.75,0.75,0,0,0,0,,,,,,,,,,,,,,,,,19.385626600007527,19.385626600007527,319.3817713999888,327.3918214000296,327.4754305999959,327.4754305999959,359.14878490008414,371.15588089998346,371.2391583999852,379.2488327000756,379.3490795000689,379.3490795000689,388.15893810009584,389.27977510006167,389.27977510006167,None,1,,,,,,,,,,,,,,,,,,,,,,,,,,,,,,,,,,,,,,,,,,,,,,,,,,,,,,,,11,001,2023-04-18_10h16.23.318,PGNGS_RST_750_english,2022.2.5,60.025270649682234,
L_k.bmp,None,L_q.bmp,None,L_q.bmp,None,L_b.bmp,None,L_c.bmp,None,L_b.bmp,None,L_j.bmp,None,0.75,0.75,0,1,1,1,,,,,,,,,,,,,,,,,,,,,,,,,,,,,,389.9230663999915,389.9230663999915,None,1,,,,,,,,,,,,,,,,,,,,,,,,,,,,,,,,,,,,,,,,,,,,,,,,,,,,,,,,11,001,2023-04-18_10h16.23.318,PGNGS_RST_750_english,2022.2.5,60.025270649682234,
L_s.bmp,n,L_f.bmp,None,L_f.bmp,None,L_s.bmp,n,L_j.bmp,None,L_g.bmp,None,L_b.bmp,None,0.75,0.75,0,2,2,2,,,,,,,,,,,,,,,,,,,,,,,,,,,,,,390.6726952000754,390.6726952000754,None,0,,,,,,,,,,,,,,,,,,,,,,,,,,,,,,,,,,,,,,,,,,,,,,,,,,,,,,,,11,001,2023-04-18_10h16.23.318,PGNGS_RST_750_english,2022.2.5,60.025270649682234,
L_g.bmp,None,L_r.bmp,n,L_r.bmp,n,L_b.bmp,None,L_k.bmp,None,L_j.bmp,None,L_t.bmp,n,0.75,0.75,0,3,3,3,,,,,,,,,,,,,,,,,,,,,,,,,,,,,,391.4251834000461,391.4251834000461,n,0,0.005766200018115342,,,,,,,,,,,,,,,,,,,,,,,,,,,,,,,,,,,,,,,,,,,,,,,,,,,,,,,11,001,2023-04-18_10h16.23.318,PGNGS_RST_750_english,2022.2.5,60.025270649682234,
L_j.bmp,None,L_p.bmp,None,L_p.bmp,None,L_d.bmp,None,L_w.bmp,None,L_s.bmp,n,L_w.bmp,None,0.75,0.75,0,4,4,4,,,,,,,,,,,,,,,,,,,,,,,,,,,,,,392.17468490009196,392.17468490009196,None,1,,,,,,,,,,,,,,,,,,,,,,,,,,,,,,,,,,,,,,,,,,,,,,,,,,,,,,,,11,001,2023-04-18_10h16.23.318,PGNGS_RST_750_english,2022.2.5,60.025270649682234,
L_b.bmp,None,L_k.bmp,None,L_l.bmp,None,L_v.bmp,None,L_t.bmp,n,L_l.bmp,None,L_m.bmp,None,0.75,0.75,0,5,5,5,,,,,,,,,,,,,,,,,,,,,,,,,,,,,,392.92094059998635,392.92094059998635,None,1,,,,,,,,,,,,,,,,,,,,,,,,,,,,,,,,,,,,,,,,,,,,,,,,,,,,,,,,11,001,2023-04-18_10h16.23.318,PGNGS_RST_750_english,2022.2.5,60.025270649682234,
L_r.bmp,n,L_m.bmp,None,L_m.bmp,None,L_b.bmp,None,L_f.bmp,None,L_v.bmp,None,L_w.bmp,None,0.75,0.75,0,6,6,6,,,,,,,,,,,,,,,,,,,,,,,,,,,,,,393.670402900083,393.670402900083,None,0,,,,,,,,,,,,,,,,,,,,,,,,,,,,,,,,,,,,,,,,,,,,,,,,,,,,,,,,11,001,2023-04-18_10h16.23.318,PGNGS_RST_750_english,2022.2.5,60.025270649682234,
L_j.bmp,None,L_f.bmp,None,L_f.bmp,None,L_n.bmp,None,L_m.bmp,None,L_r.bmp,None,L_s.bmp,n,0.75,0.75,0,7,7,7,,,,,,,,,,,,,,,,,,,,,,,,,,,,,,394.4195110000437,394.4195110000437,n,0,0.48412369994912297,,,,,,,,,,,,,,,,,,,,,,,,,,,,,,,,,,,,,,,,,,,,,,,,,,,,,,,11,001,2023-04-18_10h16.23.318,PGNGS_RST_750_english,2022.2.5,60.025270649682234,
L_b.bmp,None,L_k.bmp,None,L_l.bmp,None,L_c.bmp,None,L_g.bmp,None,L_q.bmp,None,L_j.bmp,None,0.75,0.75,0,8,8,8,,,,,,,,,,,,,,,,,,,,,,,,,,,,,,395.1689116000198,395.1689116000198,None,1,,,,,,,,,,,,,,,,,,,,,,,,,,,,,,,,,,,,,,,,,,,,,,,,,,,,,,,,11,001,2023-04-18_10h16.23.318,PGNGS_RST_750_english,2022.2.5,60.025270649682234,
L_n.bmp,None,L_s.bmp,n,L_s.bmp,n,L_p.bmp,None,L_l.bmp,None,L_m.bmp,None,L_d.bmp,None,0.75,0.75,0,9,9,9,,,,,,,,,,,,,,,,,,,,,,,,,,,,,,395.9182684000116,395.9182684000116,None,1,,,,,,,,,,,,,,,,,,,,,,,,,,,,,,,,,,,,,,,,,,,,,,,,,,,,,,,,11,001,2023-04-18_10h16.23.318,PGNGS_RST_750_english,2022.2.5,60.025270649682234,
L_l.bmp,None,L_w.bmp,None,L_b.bmp,None,L_f.bmp,None,L_w.bmp,None,L_b.bmp,None,L_f.bmp,None,0.75,0.75,0,10,10,10,,,,,,,,,,,,,,,,,,,,,,,,,,,,,,396.67426320002414,396.67426320002414,n,0,0.021344400011003017,,,,,,,,,,,,,,,,,,,,,,,,,,,,,,,,,,,,,,,,,,,,,,,,,,,,,,,11,001,2023-04-18_10h16.23.318,PGNGS_RST_750_english,2022.2.5,60.025270649682234,
L_j.bmp,None,L_j.bmp,None,L_j.bmp,None,L_p.bmp,None,L_h.bmp,None,L_h.bmp,None,L_p.bmp,None,0.75,0.75,0,11,11,11,,,,,,,,,,,,,,,,,,,,,,,,,,,,,,397.41736870002933,397.41736870002933,None,1,,,,,,,,,,,,,,,,,,,,,,,,,,,,,,,,,,,,,,,,,,,,,,,,,,,,,,,,11,001,2023-04-18_10h16.23.318,PGNGS_RST_750_english,2022.2.5,60.025270649682234,
L_h.bmp,None,L_p.bmp,None,L_p.bmp,None,L_t.bmp,n,L_w.bmp,None,L_m.bmp,None,L_r.bmp,None,0.75,0.25,0,12,12,12,,,,,,,,,,,,,,,,,,,,,,,,,,,,,,398.17829489998985,398.17829489998985,None,1,,,,,,,,,,,,,,,,,,,,,,,,,,,,,,,,,,,,,,,,,,,,,,,,,,,,,,,,11,001,2023-04-18_10h16.23.318,PGNGS_RST_750_english,2022.2.5,60.025270649682234,
L_r.bmp,n,L_g.bmp,None,L_k.bmp,None,L_q.bmp,None,L_g.bmp,None,L_r.bmp,n,Stop.bmp,None,0.75,0.5,0,13,13,13,,,,,,,,,,,,,,,,,,,,,,,,,,,,,,398.9159010000294,398.9159010000294,None,0,,,,,,,,,,,,,,,,,,,,,,,,,,,,,,,,,,,,,,,,,,,,,,,,,,,,,,,,11,001,2023-04-18_10h16.23.318,PGNGS_RST_750_english,2022.2.5,60.025270649682234,
L_q.bmp,None,L_q.bmp,None,L_q.bmp,None,L_p.bmp,None,L_m.bmp,None,L_f.bmp,None,L_d.bmp,None,0.75,0.75,0,14,14,14,,,,,,,,,,,,,,,,,,,,,,,,,,,,,,399.66753660002723,399.66753660002723,None,1,,,,,,,,,,,,,,,,,,,,,,,,,,,,,,,,,,,,,,,,,,,,,,,,,,,,,,,,11,001,2023-04-18_10h16.23.318,PGNGS_RST_750_english,2022.2.5,60.025270649682234,
L_b.bmp,None,L_w.bmp,None,L_b.bmp,None,L_m.bmp,None,L_w.bmp,None,L_q.bmp,None,L_m.bmp,None,0.75,0.75,0,15,15,15,,,,,,,,,,,,,,,,,,,,,,,,,,,,,,400.414466700051,400.414466700051,None,1,,,,,,,,,,,,,,,,,,,,,,,,,,,,,,,,,,,,,,,,,,,,,,,,,,,,,,,,11,001,2023-04-18_10h16.23.318,PGNGS_RST_750_english,2022.2.5,60.025270649682234,
L_g.bmp,None,L_s.bmp,None,L_r.bmp,None,L_s.bmp,n,L_h.bmp,None,L_t.bmp,n,L_t.bmp,n,0.25,0.75,0,16,16,16,,,,,,,,,,,,,,,,,,,,,,,,,,,,,,401.1638424000703,401.1638424000703,None,1,,,,,,,,,,,,,,,,,,,,,,,,,,,,,,,,,,,,,,,,,,,,,,,,,,,,,,,,11,001,2023-04-18_10h16.23.318,PGNGS_RST_750_english,2022.2.5,60.025270649682234,
L_r.bmp,n,L_f.bmp,None,Stop.bmp,None,L_h.bmp,None,L_r.bmp,n,L_p.bmp,None,L_p.bmp,None,0.5,0.75,0,17,17,17,,,,,,,,,,,,,,,,,,,,,,,,,,,,,,401.91332320007496,401.91332320007496,None,0,,,,,,,,,,,,,,,,,,,,,,,,,,,,,,,,,,,,,,,,,,,,,,,,,,,,,,,,11,001,2023-04-18_10h16.23.318,PGNGS_RST_750_english,2022.2.5,60.025270649682234,
L_f.bmp,None,L_m.bmp,None,L_f.bmp,None,L_b.bmp,None,L_j.bmp,None,L_f.bmp,None,L_j.bmp,None,0.75,0.75,0,18,18,18,,,,,,,,,,,,,,,,,,,,,,,,,,,,,,402.66272920009214,402.66272920009214,n,0,0.640006999950856,,,,,,,,,,,,,,,,,,,,,,,,,,,,,,,,,,,,,,,,,,,,,,,,,,,,,,,11,001,2023-04-18_10h16.23.318,PGNGS_RST_750_english,2022.2.5,60.025270649682234,
L_g.bmp,None,L_j.bmp,None,L_m.bmp,None,L_m.bmp,None,L_k.bmp,None,L_p.bmp,None,L_r.bmp,n,0.75,0.75,0,19,19,19,,,,,,,,,,,,,,,,,,,,,,,,,,,,,,403.41208650008775,403.41208650008775,None,1,,,,,,,,,,,,,,,,,,,,,,,,,,,,,,,,,,,,,,,,,,,,,,,,,,,,,,,,11,001,2023-04-18_10h16.23.318,PGNGS_RST_750_english,2022.2.5,60.025270649682234,
L_v.bmp,None,L_k.bmp,None,L_j.bmp,None,L_s.bmp,n,L_r.bmp,None,L_c.bmp,None,L_m.bmp,None,0.75,0.75,0,20,20,20,,,,,,,,,,,,,,,,,,,,,,,,,,,,,,404.1637719999999,404.1637719999999,None,1,,,,,,,,,,,,,,,,,,,,,,,,,,,,,,,,,,,,,,,,,,,,,,,,,,,,,,,,11,001,2023-04-18_10h16.23.318,PGNGS_RST_750_english,2022.2.5,60.025270649682234,
L_f.bmp,None,L_r.bmp,n,L_l.bmp,None,L_q.bmp,None,L_k.bmp,None,L_n.bmp,None,L_w.bmp,None,0.75,0.75,0,21,21,21,,,,,,,,,,,,,,,,,,,,,,,,,,,,,,404.91154960007407,404.91154960007407,None,1,,,,,,,,,,,,,,,,,,,,,,,,,,,,,,,,,,,,,,,,,,,,,,,,,,,,,,,,11,001,2023-04-18_10h16.23.318,PGNGS_RST_750_english,2022.2.5,60.025270649682234,
L_g.bmp,None,L_k.bmp,None,L_s.bmp,n,L_v.bmp,None,L_f.bmp,None,L_b.bmp,None,L_q.bmp,None,0.75,0.75,0,22,22,22,,,,,,,,,,,,,,,,,,,,,,,,,,,,,,405.66056049999315,405.66056049999315,None,1,,,,,,,,,,,,,,,,,,,,,,,,,,,,,,,,,,,,,,,,,,,,,,,,,,,,,,,,11,001,2023-04-18_10h16.23.318,PGNGS_RST_750_english,2022.2.5,60.025270649682234,
L_h.bmp,None,L_f.bmp,None,L_l.bmp,None,L_l.bmp,None,L_l.bmp,None,L_v.bmp,None,L_t.bmp,n,0.75,0.75,0,23,23,23,,,,,,,,,,,,,,,,,,,,,,,,,,,,,,406.40974760008976,406.40974760008976,None,1,,407.1589899000246,407.1589899000246,,,,,,,,,,,,,,,,,,,,,,,,,,,,,,,,,,,,,,,,,,,,,,,,,,,,,11,001,2023-04-18_10h16.23.318,PGNGS_RST_750_english,2022.2.5,60.025270649682234,
L_b.bmp,None,L_l.bmp,None,L_f.bmp,None,L_s.bmp,n,L_f.bmp,None,L_d.bmp,None,L_b.bmp,None,0.75,0.75,0,24,24,24,,,,,,,,,,,,,,,,,,,,,,,,,,,,,,407.1589899000246,407.1589899000246,None,1,,407.90849719999824,407.90849719999824,,,,,,,,,,,,,,,,,,,,,,,,,,,,,,,,,,,,,,,,,,,,,,,,,,,,,11,001,2023-04-18_10h16.23.318,PGNGS_RST_750_english,2022.2.5,60.025270649682234,
L_v.bmp,None,L_s.bmp,n,L_w.bmp,None,L_j.bmp,None,L_r.bmp,None,L_s.bmp,None,L_m.bmp,None,0.75,0.75,0,25,25,25,,,,,,,,,,,,,,,,,,,,,,,,,,,,,,407.90849719999824,407.90849719999824,None,1,,408.67337010009214,408.67337010009214,,,,,,,,,,,,,,,,,,,,,,,,,,,,,,,,,,,,,,,,,,,,,,,,,,,,,11,001,2023-04-18_10h16.23.318,PGNGS_RST_750_english,2022.2.5,60.025270649682234,
L_c.bmp,None,L_n.bmp,None,L_r.bmp,n,L_g.bmp,None,L_n.bmp,None,L_b.bmp,None,L_g.bmp,None,0.75,0.75,0,26,26,26,,,,,,,,,,,,,,,,,,,,,,,,,,,,,,408.67337010009214,408.67337010009214,None,1,,,,,,,,,,,,,,,,,,,,,,,,,,,,,,,,,,,,,,,,,,,,,,,,,,,,,,,,11,001,2023-04-18_10h16.23.318,PGNGS_RST_750_english,2022.2.5,60.025270649682234,
L_l.bmp,None,L_d.bmp,None,L_n.bmp,None,L_f.bmp,None,L_d.bmp,None,L_q.bmp,None,L_s.bmp,None,0.75,0.4,0,27,27,27,,,,,,,,,,,,,,,,,,,,,,,,,,,,,,409.423986800015,409.423986800015,None,1,,,,,,,,,,,,,,,,,,,,,,,,,,,,,,,,,,,,,,,,,,,,,,,,,,,,,,,,11,001,2023-04-18_10h16.23.318,PGNGS_RST_750_english,2022.2.5,60.025270649682234,
L_m.bmp,None,L_r.bmp,n,L_d.bmp,None,L_t.bmp,n,L_s.bmp,n,L_d.bmp,None,Stop.bmp,None,0.75,0.35,0,28,28,28,,,,,,,,,,,,,,,,,,,,,,,,,,,,,,410.17306250007823,410.17306250007823,None,1,,,,,,,,,,,,,,,,,,,,,,,,,,,,,,,,,,,,,,,,,,,,,,,,,,,,,,,,11,001,2023-04-18_10h16.23.318,PGNGS_RST_750_english,2022.2.5,60.025270649682234,
L_n.bmp,None,L_v.bmp,None,L_s.bmp,n,L_d.bmp,None,L_v.bmp,None,L_v.bmp,None,L_g.bmp,None,0.75,0.75,0,29,29,29,,,,,,,,,,,,,,,,,,,,,,,,,,,,,,410.92279079998843,410.92279079998843,None,1,,,,,,,,,,,,,,,,,,,,,,,,,,,,,,,,,,,,,,,,,,,,,,,,,,,,,,,,11,001,2023-04-18_10h16.23.318,PGNGS_RST_750_english,2022.2.5,60.025270649682234,
L_p.bmp,None,L_f.bmp,None,L_v.bmp,None,L_c.bmp,None,L_f.bmp,None,L_b.bmp,None,L_c.bmp,None,0.75,0.75,0,30,30,30,,,,,,,,,,,,,,,,,,,,,,,,,,,,,,411.67283450008836,411.67283450008836,None,1,,,,,,,,,,,,,,,,,,,,,,,,,,,,,,,,,,,,,,,,,,,,,,,,,,,,,,,,11,001,2023-04-18_10h16.23.318,PGNGS_RST_750_english,2022.2.5,60.025270649682234,
L_v.bmp,None,L_w.bmp,None,L_f.bmp,None,L_n.bmp,None,L_w.bmp,None,L_s.bmp,n,L_g.bmp,None,0.75,0.75,0,31,31,31,,,,,,,,,,,,,,,,,,,,,,,,,,,,,,412.4212424000725,412.4212424000725,None,1,,,,,,,,,,,,,,,,,,,,,,,,,,,,,,,,,,,,,,,,,,,,,,,,,,,,,,,,11,001,2023-04-18_10h16.23.318,PGNGS_RST_750_english,2022.2.5,60.025270649682234,
L_p.bmp,None,L_q.bmp,None,L_b.bmp,None,L_h.bmp,None,L_q.bmp,None,L_w.bmp,None,L_p.bmp,None,0.75,0.75,0,32,32,32,,,,,,,,,,,,,,,,,,,,,,,,,,,,,,413.1713764000451,413.1713764000451,None,1,,,,,,,,,,,,,,,,,,,,,,,,,,,,,,,,,,,,,,,,,,,,,,,,,,,,,,,,11,001,2023-04-18_10h16.23.318,PGNGS_RST_750_english,2022.2.5,60.025270649682234,
L_l.bmp,None,L_k.bmp,None,L_q.bmp,None,L_g.bmp,None,L_k.bmp,None,L_n.bmp,None,L_c.bmp,None,0.75,0.75,0,33,33,33,,,,,,,,,,,,,,,,,,,,,,,,,,,,,,413.92030730005354,413.92030730005354,None,1,,,,,,,,,,,,,,,,,,,,,,,,,,,,,,,,,,,,,,,,,,,,,,,,,,,,,,,,11,001,2023-04-18_10h16.23.318,PGNGS_RST_750_english,2022.2.5,60.025270649682234,
L_r.bmp,n,L_b.bmp,None,L_l.bmp,None,L_l.bmp,None,L_b.bmp,None,L_f.bmp,None,L_r.bmp,n,0.75,0.75,0,34,34,34,,,,,,,,,,,,,,,,,,,,,,,,,,,,,,414.6693713000277,414.6693713000277,n,1,0.6653357000323012,,,,,,,,,,,,,,,,,,,,,,,,,,,,,,,,,,,,,,,,,,,,,,,,,,,,,,,11,001,2023-04-18_10h16.23.318,PGNGS_RST_750_english,2022.2.5,60.025270649682234,
L_q.bmp,None,L_j.bmp,None,L_g.bmp,None,L_b.bmp,None,L_j.bmp,None,L_t.bmp,n,L_h.bmp,None,0.75,0.75,0,35,35,35,,,,,,,,,,,,,,,,,,,,,,,,,,,,,,415.4188128000824,415.4188128000824,None,1,,,,,,,,,,,,,,,,,,,,,,,,,,,,,,,,,,,,,,,,,,,,,,,,,,,,,,,,11,001,2023-04-18_10h16.23.318,PGNGS_RST_750_english,2022.2.5,60.025270649682234,
L_g.bmp,None,L_k.bmp,None,L_j.bmp,None,L_t.bmp,n,L_l.bmp,None,L_f.bmp,None,L_t.bmp,None,0.75,0.3,0,36,36,36,,,,,,,,,,,,,,,,,,,,,,,,,,,,,,416.16842190001626,416.16842190001626,None,1,,,,,,,,,,,,,,,,,,,,,,,,,,,,,,,,,,,,,,,,,,,,,,,,,,,,,,,,11,001,2023-04-18_10h16.23.318,PGNGS_RST_750_english,2022.2.5,60.025270649682234,
L_r.bmp,n,L_b.bmp,None,L_j.bmp,None,L_k.bmp,None,L_b.bmp,None,L_d.bmp,None,Stop.bmp,None,0.75,0.45,0,37,37,37,,,,,,,,,,,,,,,,,,,,,,,,,,,,,,416.9177806000225,416.9177806000225,None,0,,,,,,,,,,,,,,,,,,,,,,,,,,,,,,,,,,,,,,,,,,,,,,,,,,,,,,,,11,001,2023-04-18_10h16.23.318,PGNGS_RST_750_english,2022.2.5,60.025270649682234,
L_b.bmp,None,L_r.bmp,None,L_g.bmp,None,L_j.bmp,None,L_t.bmp,n,L_w.bmp,None,L_w.bmp,None,0.75,0.75,0,38,38,38,,,,,,,,,,,,,,,,,,,,,,,,,,,,,,417.6672190000536,417.6672190000536,n,0,0.21215030003804713,,,,,,,,,,,,,,,,,,,,,,,,,,,,,,,,,,,,,,,,,,,,,,,,,,,,,,,11,001,2023-04-18_10h16.23.318,PGNGS_RST_750_english,2022.2.5,60.025270649682234,
L_j.bmp,None,L_q.bmp,None,L_r.bmp,None,L_f.bmp,None,L_q.bmp,None,L_q.bmp,None,L_j.bmp,None,0.4,0.75,0,39,39,39,,,,,,,,,,,,,,,,,,,,,,,,,,,,,,418.41656430007424,418.41656430007424,None,1,,,,,,,,,,,,,,,,,,,,,,,,,,,,,,,,,,,,,,,,,,,,,,,,,,,,,,,,11,001,2023-04-18_10h16.23.318,PGNGS_RST_750_english,2022.2.5,60.025270649682234,
L_g.bmp,None,L_m.bmp,None,Stop.bmp,None,L_g.bmp,None,L_m.bmp,None,L_g.bmp,None,L_g.bmp,None,0.35,0.75,0,40,40,40,,,,,,,,,,,,,,,,,,,,,,,,,,,,,,419.1659212000668,419.1659212000668,None,1,,,,,,,,,,,,,,,,,,,,,,,,,,,,,,,,,,,,,,,,,,,,,,,,,,,,,,,,11,001,2023-04-18_10h16.23.318,PGNGS_RST_750_english,2022.2.5,60.025270649682234,
L_s.bmp,n,L_q.bmp,None,L_q.bmp,None,L_h.bmp,None,L_q.bmp,None,L_p.bmp,None,L_k.bmp,None,0.75,0.75,0,41,41,41,,,,,,,,,,,,,,,,,,,,,,,,,,,,,,419.9153743000934,419.9153743000934,n,1,0.5245479999575764,,,,,,,,,,,,,,,,,,,,,,,,,,,,,,,,,,,,,,,,,,,,,,,,,,,,,,,11,001,2023-04-18_10h16.23.318,PGNGS_RST_750_english,2022.2.5,60.025270649682234,
L_v.bmp,None,L_f.bmp,None,L_m.bmp,None,L_b.bmp,None,L_j.bmp,None,L_j.bmp,None,L_f.bmp,None,0.75,0.75,0,42,42,42,,,,,,,,,,,,,,,,,,,,,,,,,,,,,,420.6641535999952,420.6641535999952,None,1,,,,,,,,,,,,,,,,,,,,,,,,,,,,,,,,,,,,,,,,,,,,,,,,,,,,,,,,11,001,2023-04-18_10h16.23.318,PGNGS_RST_750_english,2022.2.5,60.025270649682234,
L_m.bmp,None,L_j.bmp,None,L_q.bmp,None,L_v.bmp,None,L_m.bmp,None,L_w.bmp,None,L_s.bmp,n,0.75,0.75,0,43,43,43,,,,,,,,,,,,,,,,,,,,,,,,,,,,,,421.41405520006083,421.41405520006083,None,1,,,,,,,,,,,,,,,,,,,,,,,,,,,,,,,,,,,,,,,,,,,,,,,,,,,,,,,,11,001,2023-04-18_10h16.23.318,PGNGS_RST_750_english,2022.2.5,60.025270649682234,
L_b.bmp,None,L_m.bmp,None,L_f.bmp,None,L_b.bmp,None,L_b.bmp,None,L_h.bmp,None,L_b.bmp,None,0.75,0.75,0,44,44,44,,,,,,,,,,,,,,,,,,,,,,,,,,,,,,422.16323270008434,422.16323270008434,None,1,,,,,,,,,,,,,,,,,,,,,,,,,,,,,,,,,,,,,,,,,,,,,,,,,,,,,,,,11,001,2023-04-18_10h16.23.318,PGNGS_RST_750_english,2022.2.5,60.025270649682234,
L_s.bmp,n,L_b.bmp,None,L_j.bmp,None,L_r.bmp,n,L_m.bmp,None,L_k.bmp,None,L_p.bmp,None,0.75,0.75,0,45,45,45,,,,,,,,,,,,,,,,,,,,,,,,,,,,,,422.9127547000535,422.9127547000535,n,1,0.614577200030908,,,,,,,,,,,,,,,,,,,,,,,,,,,,,,,,,,,,,,,,,,,,,,,,,,,,,,,11,001,2023-04-18_10h16.23.318,PGNGS_RST_750_english,2022.2.5,60.025270649682234,
L_b.bmp,None,L_j.bmp,None,L_m.bmp,None,L_b.bmp,None,L_d.bmp,None,L_f.bmp,None,L_d.bmp,None,0.75,0.75,0,46,46,46,,,,,,,,,,,,,,,,,,,,,,,,,,,,,,423.66229690006,423.66229690006,None,1,,,,,,,,,,,,,,,,,,,,,,,,,,,,,,,,,,,,,,,,,,,,,,,,,,,,,,,,11,001,2023-04-18_10h16.23.318,PGNGS_RST_750_english,2022.2.5,60.025270649682234,
L_d.bmp,None,L_m.bmp,None,L_g.bmp,None,L_n.bmp,None,L_n.bmp,None,L_s.bmp,n,L_f.bmp,None,0.75,0.75,0,47,47,47,,,,,,,,,,,,,,,,,,,,,,,,,,,,,,424.42738080001436,424.42738080001436,None,1,,,,,,,,,,,,,,,,,,,,,,,,,,,,,,,,,,,,,,,,,,,,,,,,,,,,,,,,11,001,2023-04-18_10h16.23.318,PGNGS_RST_750_english,2022.2.5,60.025270649682234,
L_v.bmp,None,L_n.bmp,None,L_r.bmp,n,L_l.bmp,None,L_l.bmp,None,L_k.bmp,None,L_f.bmp,None,0.75,0.75,0,48,48,48,,,,,,,,,,,,,,,,,,,,,,,,,,,,,,425.1610507000005,425.1610507000005,None,1,,,,,,,,,,,,,,,,,,,,,,,,,,,,,,,,,,,,,,,,,,,,,,,,,,,,,,,,11,001,2023-04-18_10h16.23.318,PGNGS_RST_750_english,2022.2.5,60.025270649682234,
L_b.bmp,None,L_f.bmp,None,L_q.bmp,None,L_j.bmp,None,L_j.bmp,None,L_p.bmp,None,L_p.bmp,None,0.75,0.75,0,49,49,49,,,,,,,,,,,,,,,,,,,,,,,,,,,,,,425.91021770006046,425.91021770006046,None,1,,426.65961279999465,426.65961279999465,,,,,,,,,,,,,,,,,,,,,,,,,,,,,,,,,,,,,,,,,,,,,,,,,,,,,11,001,2023-04-18_10h16.23.318,PGNGS_RST_750_english,2022.2.5,60.025270649682234,
L_n.bmp,None,L_m.bmp,None,L_d.bmp,None,L_h.bmp,None,L_h.bmp,None,L_t.bmp,n,L_t.bmp,n,0.75,0.75,0,50,50,50,,,,,,,,,,,,,,,,,,,,,,,,,,,,,,426.65961279999465,426.65961279999465,None,1,,427.4090167999966,427.4090167999966,,,,,,,,,,,,,,,,,,,,,,,,,,,,,,,,,,,,,,,,,,,,,,,,,,,,,11,001,2023-04-18_10h16.23.318,PGNGS_RST_750_english,2022.2.5,60.025270649682234,
L_c.bmp,None,L_p.bmp,None,L_c.bmp,None,L_t.bmp,n,L_s.bmp,n,L_f.bmp,None,L_l.bmp,None,0.75,0.75,0,51,51,51,,,,,,,,,,,,,,,,,,,,,,,,,,,,,,427.4090167999966,427.4090167999966,None,1,,428.15867979999166,428.15867979999166,,,,,,,,,,,,,,,,,,,,,,,,,,,,,,,,,,,,,,,,,,,,,,,,,,,,,11,001,2023-04-18_10h16.23.318,PGNGS_RST_750_english,2022.2.5,60.025270649682234,
L_p.bmp,None,L_l.bmp,None,L_j.bmp,None,L_q.bmp,None,L_q.bmp,None,L_q.bmp,None,L_c.bmp,None,0.75,0.75,0,52,52,52,,,,,,,,,,,,,,,,,,,,,,,,,,,,,,428.15867979999166,428.15867979999166,None,1,,428.9078840999864,428.9078840999864,,,,,,,,,,,,,,,,,,,,,,,,,,,,,,,,,,,,,,,,,,,,,,,,,,,,,11,001,2023-04-18_10h16.23.318,PGNGS_RST_750_english,2022.2.5,60.025270649682234,
L_f.bmp,None,L_h.bmp,None,L_f.bmp,None,L_b.bmp,None,L_b.bmp,None,L_n.bmp,None,L_h.bmp,None,0.75,0.75,0,53,53,53,,,,,,,,,,,,,,,,,,,,,,,,,,,,,,428.9078840999864,428.9078840999864,None,1,,429.6571610000683,429.6571610000683,,,,,,,,,,,,,,,,,,,,,,,,,,,,,,,,,,,,,,,,,,,,,,,,,,,,,11,001,2023-04-18_10h16.23.318,PGNGS_RST_750_english,2022.2.5,60.025270649682234,
L_p.bmp,None,L_s.bmp,n,L_d.bmp,None,L_g.bmp,None,L_g.bmp,None,L_s.bmp,None,L_b.bmp,None,0.75,0.75,0,54,54,54,,,,,,,,,,,,,,,,,,,,,,,,,,,,,,429.6571610000683,429.6571610000683,None,1,,430.40660300001036,430.40660300001036,,,,,,,,,,,,,,,,,,,,,,,,,,,,,,,,,,,,,,,,,,,,,,,,,,,,,11,001,2023-04-18_10h16.23.318,PGNGS_RST_750_english,2022.2.5,60.025270649682234,
L_r.bmp,n,L_v.bmp,None,L_g.bmp,None,L_t.bmp,n,L_t.bmp,n,L_b.bmp,None,L_m.bmp,None,0.75,0.75,0,55,55,55,,,,,,,,,,,,,,,,,,,,,,,,,,,,,,430.40660300001036,430.40660300001036,n,1,0.6399494999786839,431.15607710008044,431.15607710008044,,,,,,,,,,,,,,,,,,,,,,,,,,,,,,,,,,,,,,,,,,,,,,,,,,,,,11,001,2023-04-18_10h16.23.318,PGNGS_RST_750_english,2022.2.5,60.025270649682234,
L_q.bmp,None,L_h.bmp,None,L_p.bmp,None,L_g.bmp,None,L_g.bmp,None,L_k.bmp,None,L_k.bmp,None,0.75,0.75,0,56,56,56,,,,,,,,,,,,,,,,,,,,,,,,,,,,,,431.15607710008044,431.15607710008044,None,1,,431.9054329000646,431.9054329000646,,,,,,,,,,,,,,,,,,,,,,,,,,,,,,,,,,,,,,,,,,,,,,,,,,,,,11,001,2023-04-18_10h16.23.318,PGNGS_RST_750_english,2022.2.5,60.025270649682234,
L_f.bmp,None,L_k.bmp,None,L_b.bmp,None,L_k.bmp,None,L_l.bmp,None,L_g.bmp,None,L_p.bmp,None,0.75,0.75,0,57,57,57,,,,,,,,,,,,,,,,,,,,,,,,,,,,,,431.9054329000646,431.9054329000646,None,1,,432.6548681000713,432.6548681000713,,,,,,,,,,,,,,,,,,,,,,,,,,,,,,,,,,,,,,,,,,,,,,,,,,,,,11,001,2023-04-18_10h16.23.318,PGNGS_RST_750_english,2022.2.5,60.025270649682234,
L_s.bmp,n,L_r.bmp,n,L_q.bmp,None,L_f.bmp,None,L_r.bmp,n,L_m.bmp,None,L_b.bmp,None,0.75,0.75,0,58,58,58,,,,,,,,,,,,,,,,,,,,,,,,,,,,,,432.6548681000713,432.6548681000713,n,1,0.59994459990412,433.4041705999989,433.4041705999989,,,,,,,,,,,,,,,,,,,,,,,,,,,,,,,,,,,,,,,,,,,,,,,,,,,,,11,001,2023-04-18_10h16.23.318,PGNGS_RST_750_english,2022.2.5,60.025270649682234,
L_m.bmp,None,L_q.bmp,None,L_f.bmp,None,L_l.bmp,None,L_f.bmp,None,L_j.bmp,None,L_f.bmp,None,0.75,0.75,0,59,59,59,,,,,,,,,,,,,,,,,,,,,,,,,,,,,,433.4041705999989,433.4041705999989,None,1,,434.1535189000424,434.1535189000424,,,,,,,,,,,,,,,,,,,,,,,,,,,,,,,,,,,,,,,,,,,,,,,,,,,,,11,001,2023-04-18_10h16.23.318,PGNGS_RST_750_english,2022.2.5,60.025270649682234,
L_h.bmp,None,L_d.bmp,None,L_p.bmp,None,L_r.bmp,n,L_k.bmp,None,L_m.bmp,None,L_l.bmp,None,0.75,0.75,0,60,60,60,,,,,,,,,,,,,,,,,,,,,,,,,,,,,,434.1535189000424,434.1535189000424,None,1,,434.90296530001797,434.90296530001797,,,,,,,,,,,,,,,,,,,,,,,,,,,,,,,,,,,,,,,,,,,,,,,,,,,,,11,001,2023-04-18_10h16.23.318,PGNGS_RST_750_english,2022.2.5,60.025270649682234,
L_b.bmp,None,L_m.bmp,None,L_s.bmp,None,L_v.bmp,None,L_v.bmp,None,L_w.bmp,None,L_g.bmp,None,0.3,0.75,0,61,61,61,,,,,,,,,,,,,,,,,,,,,,,,,,,,,,434.90296530001797,434.90296530001797,None,1,,435.65234340005554,435.65234340005554,,,,,,,,,,,,,,,,,,,,,,,,,,,,,,,,,,,,,,,,,,,,,,,,,,,,,11,001,2023-04-18_10h16.23.318,PGNGS_RST_750_english,2022.2.5,60.025270649682234,
L_m.bmp,None,L_j.bmp,None,Stop.bmp,None,L_c.bmp,None,L_c.bmp,None,L_h.bmp,None,L_k.bmp,None,0.45,0.75,0,62,62,62,,,,,,,,,,,,,,,,,,,,,,,,,,,,,,435.65234340005554,435.65234340005554,None,1,,436.4015965000726,436.4015965000726,,,,,,,,,,,,,,,,,,,,,,,,,,,,,,,,,,,,,,,,,,,,,,,,,,,,,11,001,2023-04-18_10h16.23.318,PGNGS_RST_750_english,2022.2.5,60.025270649682234,
L_q.bmp,None,L_f.bmp,None,L_w.bmp,None,L_l.bmp,None,L_l.bmp,None,L_v.bmp,None,L_r.bmp,None,0.75,0.4,0,63,63,63,,,,,,,,,,,,,,,,,,,,,,,,,,,,,,436.4015965000726,436.4015965000726,None,1,,437.151270100032,437.151270100032,,,,,,,,,,,,,,,,,,,,,,,,,,,,,,,,,,,,,,,,,,,,,,,,,,,,,11,001,2023-04-18_10h16.23.318,PGNGS_RST_750_english,2022.2.5,60.025270649682234,
L_s.bmp,n,L_d.bmp,None,L_w.bmp,None,L_m.bmp,None,L_m.bmp,None,L_b.bmp,None,Stop.bmp,None,0.75,0.35,0,64,64,64,,,,,,,,,,,,,,,,,,,,,,,,,,,,,,437.151270100032,437.151270100032,n,1,0.5993406999623403,437.90050770004746,437.90050770004746,,,,,,,,,,,,,,,,,,,,,,,,,,,,,,,,,,,,,,,,,,,,,,,,,,,,,11,001,2023-04-18_10h16.23.318,PGNGS_RST_750_english,2022.2.5,60.025270649682234,
L_v.bmp,None,L_b.bmp,None,L_h.bmp,None,L_n.bmp,None,L_n.bmp,None,L_s.bmp,n,L_m.bmp,None,0.75,0.75,0,65,65,65,,,,,,,,,,,,,,,,,,,,,,,,,,,,,,437.90050770004746,437.90050770004746,None,1,,438.6499368000077,438.6499368000077,,,,,,,,,,,,,,,,,,,,,,,,,,,,,,,,,,,,,,,,,,,,,,,,,,,,,11,001,2023-04-18_10h16.23.318,PGNGS_RST_750_english,2022.2.5,60.025270649682234,
L_l.bmp,None,L_p.bmp,None,L_l.bmp,None,L_r.bmp,n,L_p.bmp,None,L_v.bmp,None,L_d.bmp,None,0.75,0.75,0,66,66,66,,,,,,,,,,,,,,,,,,,,,,,,,,,,,,438.6499368000077,438.6499368000077,None,1,,439.39910230005626,439.39910230005626,,,,,,,,,,,,,,,,,,,,,,,,,,,,,,,,,,,,,,,,,,,,,,,,,,,,,11,001,2023-04-18_10h16.23.318,PGNGS_RST_750_english,2022.2.5,60.025270649682234,
L_s.bmp,n,L_w.bmp,None,L_m.bmp,None,L_f.bmp,None,L_v.bmp,None,L_g.bmp,None,L_b.bmp,None,0.75,0.75,0,67,67,67,,,,,,,,,,,,,,,,,,,,,,,,,,,,,,439.39910230005626,439.39910230005626,None,0,,440.1485974000534,440.1485974000534,,,,,,,,,,,,,,,,,,,,,,,,,,,,,,,,,,,,,,,,,,,,,,,,,,,,,11,001,2023-04-18_10h16.23.318,PGNGS_RST_750_english,2022.2.5,60.025270649682234,
L_j.bmp,None,L_d.bmp,None,L_j.bmp,None,L_p.bmp,None,L_p.bmp,None,L_j.bmp,None,L_s.bmp,n,0.75,0.75,0,68,68,68,,,,,,,,,,,,,,,,,,,,,,,,,,,,,,440.1485974000534,440.1485974000534,n,0,0.002094999887049198,440.8979860000545,440.8979860000545,,,,,,,,,,,,,,,,,,,,,,,,,,,,,,,,,,,,,,,,,,,,,,,,,,,,,11,001,2023-04-18_10h16.23.318,PGNGS_RST_750_english,2022.2.5,60.025270649682234,
L_g.bmp,None,L_f.bmp,None,L_p.bmp,None,L_l.bmp,None,L_l.bmp,None,L_b.bmp,None,L_b.bmp,None,0.75,0.75,0,69,69,69,,,,,,,,,,,,,,,,,,,,,,,,,,,,,,440.8979860000545,440.8979860000545,None,1,,441.6473413000349,441.6473413000349,,,,,,,,,,,,,,,,,,,,,,,,,,,,,,,,,,,,,,,,,,,,,,,,,,,,,11,001,2023-04-18_10h16.23.318,PGNGS_RST_750_english,2022.2.5,60.025270649682234,
L_f.bmp,None,L_r.bmp,None,L_g.bmp,None,L_r.bmp,n,L_r.bmp,None,L_r.bmp,n,L_j.bmp,None,0.75,0.75,0,70,70,70,,,,,,,,,,,,,,,,,,,,,,,,,,,,,,441.6473413000349,441.6473413000349,None,1,,442.3967201000778,442.3967201000778,,,,,,,,,,,,,,,,,,,,,,,,,,,,,,,,,,,,,,,,,,,,,,,,,,,,,11,001,2023-04-18_10h16.23.318,PGNGS_RST_750_english,2022.2.5,60.025270649682234,
L_d.bmp,None,L_p.bmp,None,L_f.bmp,None,L_q.bmp,None,L_q.bmp,None,L_g.bmp,None,L_v.bmp,None,0.75,0.75,0,71,71,71,,,,,,,,,,,,,,,,,,,,,,,,,,,,,,442.3967201000778,442.3967201000778,None,1,,443.1463853000896,443.1463853000896,,,,,,,,,,,,,,,,,,,,,,,,,,,,,,,,,,,,,,,,,,,,,,,,,,,,,11,001,2023-04-18_10h16.23.318,PGNGS_RST_750_english,2022.2.5,60.025270649682234,
L_r.bmp,n,L_d.bmp,None,L_r.bmp,n,L_g.bmp,None,L_f.bmp,None,L_n.bmp,None,L_b.bmp,None,0.75,0.75,0,72,72,72,,,,,,,,,,,,,,,,,,,,,,,,,,,,,,443.1463853000896,443.1463853000896,n,1,0.5891115000704303,443.8954976000823,443.8954976000823,,,,,,,,,,,,,,,,,,,,,,,,,,,,,,,,,,,,,,,,,,,,,,,,,,,,,11,001,2023-04-18_10h16.23.318,PGNGS_RST_750_english,2022.2.5,60.025270649682234,
L_c.bmp,None,L_l.bmp,None,L_w.bmp,None,L_r.bmp,n,L_m.bmp,None,L_b.bmp,None,L_n.bmp,None,0.75,0.75,0,73,73,73,,,,,,,,,,,,,,,,,,,,,,,,,,,,,,443.8954976000823,443.8954976000823,None,1,,444.64493810001295,444.64493810001295,,,,,,,,,,,,,,,,,,,,,,,,,,,,,,,,,,,,,,,,,,,,,,,,,,,,,11,001,2023-04-18_10h16.23.318,PGNGS_RST_750_english,2022.2.5,60.025270649682234,
L_n.bmp,None,L_h.bmp,None,L_j.bmp,None,L_b.bmp,None,L_p.bmp,None,L_t.bmp,None,L_c.bmp,None,0.75,0.75,0,74,74,74,,,,,,,,,,,,,,,,,,,,,,,,,,,,,,444.64493810001295,444.64493810001295,None,1,,445.39440980006475,445.39440980006475,,,,,,,,,,,,,,,,,,,,,,,,,,,,,,,,,,,,,,,,,,,,,,,,,,,,,11,001,2023-04-18_10h16.23.318,PGNGS_RST_750_english,2022.2.5,60.025270649682234,
L_h.bmp,None,L_l.bmp,None,L_s.bmp,n,L_j.bmp,None,L_l.bmp,None,L_b.bmp,None,L_p.bmp,None,0.75,0.75,0,75,75,75,,,,,,,,,,,,,,,,,,,,,,,,,,,,,,445.39440980006475,445.39440980006475,None,1,,446.143691000063,446.143691000063,,,,,,,,,,,,,,,,,,,,,,,,,,,,,,,,,,,,,,,,,,,,,,,,,,,,,11,001,2023-04-18_10h16.23.318,PGNGS_RST_750_english,2022.2.5,60.025270649682234,
L_g.bmp,None,L_m.bmp,None,L_m.bmp,None,L_g.bmp,None,L_h.bmp,None,L_v.bmp,None,L_f.bmp,None,0.75,0.75,0,76,76,76,,,,,,,,,,,,,,,,,,,,,,,,,,,,,,446.143691000063,446.143691000063,None,1,,446.8928919000318,446.8928919000318,,,,,,,,,,,,,,,,,,,,,,,,,,,,,,,,,,,,,,,,,,,,,,,,,,,,,11,001,2023-04-18_10h16.23.318,PGNGS_RST_750_english,2022.2.5,60.025270649682234,
L_l.bmp,None,L_j.bmp,None,L_v.bmp,None,L_v.bmp,None,L_s.bmp,n,L_b.bmp,None,L_p.bmp,None,0.75,0.75,0,77,77,77,,,,,,,,,,,,,,,,,,,,,,,,,,,,,,446.8928919000318,446.8928919000318,None,1,,447.6426356000593,447.6426356000593,,,,,,,,,,,,,,,,,,,,,,,,,,,,,,,,,,,,,,,,,,,,,,,,,,,,,11,001,2023-04-18_10h16.23.318,PGNGS_RST_750_english,2022.2.5,60.025270649682234,
L_s.bmp,n,L_p.bmp,None,L_d.bmp,None,L_s.bmp,n,L_v.bmp,None,L_h.bmp,None,L_t.bmp,n,0.75,0.75,0,78,78,78,,,,,,,,,,,,,,,,,,,,,,,,,,,,,,447.6426356000593,447.6426356000593,n,1,0.6377624999731779,448.3918534000404,448.3918534000404,,,,,,,,,,,,,,,,,,,,,,,,,,,,,,,,,,,,,,,,,,,,,,,,,,,,,11,001,2023-04-18_10h16.23.318,PGNGS_RST_750_english,2022.2.5,60.025270649682234,
L_f.bmp,None,L_b.bmp,None,L_r.bmp,n,L_b.bmp,None,L_p.bmp,None,L_g.bmp,None,L_w.bmp,None,0.75,0.75,0,79,79,79,,,,,,,,,,,,,,,,,,,,,,,,,,,,,,448.40900169999804,448.40900169999804,None,1,,449.15788549999706,449.15788549999706,,,,,,,,,,,,,,,,,,,,,,,,,,,,,,,,,,,,,,,,,,,,,,,,,,,,,11,001,2023-04-18_10h16.23.318,PGNGS_RST_750_english,2022.2.5,60.025270649682234,
L_n.bmp,None,L_f.bmp,None,L_j.bmp,None,L_v.bmp,None,L_d.bmp,None,L_f.bmp,None,L_j.bmp,None,0.75,0.75,0,80,80,80,,,,,,,,,,,,,,,,,,,,,,,,,,,,,,449.15788549999706,449.15788549999706,None,1,,449.91313720005564,449.91313720005564,,,,,,,,,,,,,,,,,,,,,,,,,,,,,,,,,,,,,,,,,,,,,,,,,,,,,11,001,2023-04-18_10h16.23.318,PGNGS_RST_750_english,2022.2.5,60.025270649682234,
L_w.bmp,None,L_s.bmp,n,L_d.bmp,None,L_h.bmp,None,L_s.bmp,None,L_j.bmp,None,L_s.bmp,n,0.75,0.75,0,81,81,81,,,,,,,,,,,,,,,,,,,,,,,,,,,,,,449.91313720005564,449.91313720005564,None,1,,,,,,,,,,,,,,,,,,,,,,,,,,,,,,,,,,,,,,,,,,,,,,,,,,,,,,,,11,001,2023-04-18_10h16.23.318,PGNGS_RST_750_english,2022.2.5,60.025270649682234,
L_b.bmp,None,L_l.bmp,None,L_g.bmp,None,L_w.bmp,None,L_j.bmp,None,L_k.bmp,None,L_m.bmp,None,0.75,0.75,0,82,82,82,,,,,,,,,,,,,,,,,,,,,,,,,,,,,,450.6734377000248,450.6734377000248,None,1,,,,,,,,,,,,,,,,,,,,,,,,,,,,,,,,,,,,,,,,,,,,,,,,,,,,,,,,11,001,2023-04-18_10h16.23.318,PGNGS_RST_750_english,2022.2.5,60.025270649682234,
L_v.bmp,None,L_j.bmp,None,L_m.bmp,None,L_m.bmp,None,L_d.bmp,None,L_b.bmp,None,L_h.bmp,None,0.75,0.75,0,83,83,83,,,,,,,,,,,,,,,,,,,,,,,,,,,,,,451.42267380002886,451.42267380002886,None,1,,,,,,,,,,,,,,,,,,,,,,,,,,,,,,,,,,,,,,,,,,,,,,,,,,,,,,,,11,001,2023-04-18_10h16.23.318,PGNGS_RST_750_english,2022.2.5,60.025270649682234,
L_s.bmp,n,L_r.bmp,n,L_s.bmp,None,L_j.bmp,None,L_b.bmp,None,L_l.bmp,None,L_b.bmp,None,0.4,0.75,0,84,84,84,,,,,,,,,,,,,,,,,,,,,,,,,,,,,,452.1721379000228,452.1721379000228,n,1,0.49181050003971905,,,,,,,,,,,,,,,,,,,,,,,,,,,,,,,,,,,,,,,,,,,,,,,,,,,,,,,11,001,2023-04-18_10h16.23.318,PGNGS_RST_750_english,2022.2.5,60.025270649682234,
L_q.bmp,None,L_m.bmp,None,Stop.bmp,None,L_m.bmp,None,L_t.bmp,n,L_t.bmp,n,L_m.bmp,None,0.35,0.75,0,85,85,85,,,,,,,,,,,,,,,,,,,,,,,,,,,,,,452.92114450002555,452.92114450002555,None,1,,,,,,,,,,,,,,,,,,,,,,,,,,,,,,,,,,,,,,,,,,,,,,,,,,,,,,,,11,001,2023-04-18_10h16.23.318,PGNGS_RST_750_english,2022.2.5,60.025270649682234,
L_d.bmp,None,L_v.bmp,None,L_m.bmp,None,L_g.bmp,None,L_q.bmp,None,L_g.bmp,None,L_w.bmp,None,0.75,0.75,0,86,86,86,,,,,,,,,,,,,,,,,,,,,,,,,,,,,,453.67079550004564,453.67079550004564,None,1,,,,,,,,,,,,,,,,,,,,,,,,,,,,,,,,,,,,,,,,,,,,,,,,,,,,,,,,11,001,2023-04-18_10h16.23.318,PGNGS_RST_750_english,2022.2.5,60.025270649682234,
L_r.bmp,n,L_d.bmp,None,L_q.bmp,None,L_k.bmp,None,L_m.bmp,None,L_h.bmp,None,L_t.bmp,None,0.75,0.3,0,87,87,87,,,,,,,,,,,,,,,,,,,,,,,,,,,,,,454.42026819998864,454.42026819998864,None,0,,,,,,,,,,,,,,,,,,,,,,,,,,,,,,,,,,,,,,,,,,,,,,,,,,,,,,,,11,001,2023-04-18_10h16.23.318,PGNGS_RST_750_english,2022.2.5,60.025270649682234,
L_v.bmp,None,L_s.bmp,n,L_d.bmp,None,L_b.bmp,None,L_q.bmp,None,L_n.bmp,None,Stop.bmp,None,0.75,0.45,0,88,88,88,,,,,,,,,,,,,,,,,,,,,,,,,,,,,,455.16964340000413,455.16964340000413,n,0,0.02232470002491027,,,,,,,,,,,,,,,,,,,,,,,,,,,,,,,,,,,,,,,,,,,,,,,,,,,,,,,11,001,2023-04-18_10h16.23.318,PGNGS_RST_750_english,2022.2.5,60.025270649682234,
L_c.bmp,None,L_j.bmp,None,L_r.bmp,n,L_r.bmp,n,L_s.bmp,n,L_c.bmp,None,L_v.bmp,None,0.75,0.75,0,89,89,89,,,,,,,,,,,,,,,,,,,,,,,,,,,,,,455.91901800001506,455.91901800001506,None,1,,,,,,,,,,,,,,,,,,,,,,,,,,,,,,,,,,,,,,,,,,,,,,,,,,,,,,,,11,001,2023-04-18_10h16.23.318,PGNGS_RST_750_english,2022.2.5,60.025270649682234,
L_j.bmp,None,L_d.bmp,None,L_b.bmp,None,L_n.bmp,None,L_d.bmp,None,L_k.bmp,None,L_l.bmp,None,0.75,0.75,0,90,90,90,,,,,,,,,,,,,,,,,,,,,,,,,,,,,,456.6682924000779,456.6682924000779,None,1,,,,,,,,,,,,,,,,,,,,,,,,,,,,,,,,,,,,,,,,,,,,,,,,,,,,,,,,11,001,2023-04-18_10h16.23.318,PGNGS_RST_750_english,2022.2.5,60.025270649682234,
L_k.bmp,None,L_b.bmp,None,L_p.bmp,None,L_q.bmp,None,L_w.bmp,None,L_d.bmp,None,L_r.bmp,n,0.75,0.75,0,91,91,91,,,,,,,,,,,,,,,,,,,,,,,,,,,,,,457.4179387000622,457.4179387000622,None,1,,,,,,,,,,,,,,,,,,,,,,,,,,,,,,,,,,,,,,,,,,,,,,,,,,,,,,,,11,001,2023-04-18_10h16.23.318,PGNGS_RST_750_english,2022.2.5,60.025270649682234,
L_w.bmp,None,L_s.bmp,None,L_s.bmp,n,L_f.bmp,None,L_p.bmp,None,L_f.bmp,None,L_v.bmp,None,0.75,0.75,0,92,92,92,,,,,,,,,,,,,,,,,,,,,,,,,,,,,,458.1671637999825,458.1671637999825,None,1,,,,,,,,,,,,,,,,,,,,,,,,,,,,,,,,,,,,,,,,,,,,,,,,,,,,,,,,11,001,2023-04-18_10h16.23.318,PGNGS_RST_750_english,2022.2.5,60.025270649682234,
L_s.bmp,n,L_q.bmp,None,L_f.bmp,None,L_t.bmp,n,L_f.bmp,None,L_g.bmp,None,L_c.bmp,None,0.75,0.75,0,93,93,93,,,,,,,,,,,,,,,,,,,,,,,,,,,,,,458.9165398000041,458.9165398000041,n,1,0.5630134000675753,,,,,,,,,,,,,,,,,,,,,,,,,,,,,,,,,,,,,,,,,,,,,,,,,,,,,,,11,001,2023-04-18_10h16.23.318,PGNGS_RST_750_english,2022.2.5,60.025270649682234,
L_f.bmp,None,L_m.bmp,None,L_b.bmp,None,L_p.bmp,None,L_s.bmp,None,L_j.bmp,None,L_k.bmp,None,0.75,0.75,0,94,94,94,,,,,,,,,,,,,,,,,,,,,,,,,,,,,,459.6657517000567,459.6657517000567,None,1,,,,,,,,,,,,,,,,,,,,,,,,,,,,,,,,,,,,,,,,,,,,,,,,,,,,,,,,11,001,2023-04-18_10h16.23.318,PGNGS_RST_750_english,2022.2.5,60.025270649682234,
L_m.bmp,None,L_q.bmp,None,L_m.bmp,None,L_k.bmp,None,L_w.bmp,None,L_r.bmp,n,L_q.bmp,None,0.75,0.75,0,95,95,95,,,,,,,,,,,,,,,,,,,,,,,,,,,,,,460.4152286000317,460.4152286000317,None,1,,,,,,,,,,,,,,,,,,,,,,,,,,,,,,,,,,,,,,,,,,,,,,,,,,,,,,,,11,001,2023-04-18_10h16.23.318,PGNGS_RST_750_english,2022.2.5,60.025270649682234,
L_g.bmp,None,L_d.bmp,None,L_r.bmp,n,L_g.bmp,None,L_m.bmp,None,L_l.bmp,None,L_d.bmp,None,0.75,0.75,0,96,96,96,,,,,,,,,,,,,,,,,,,,,,,,,,,,,,461.17384070006665,461.17384070006665,None,1,,,,,,,,,,,,,,,,,,,,,,,,,,,,,,,,,,,,,,,,,,,,,,,,,,,,,,,,11,001,2023-04-18_10h16.23.318,PGNGS_RST_750_english,2022.2.5,60.025270649682234,
L_l.bmp,None,L_r.bmp,n,L_p.bmp,None,L_f.bmp,None,L_t.bmp,n,L_v.bmp,None,L_t.bmp,n,0.75,0.75,0,97,97,97,,,,,,,,,,,,,,,,,,,,,,,,,,,,,,461.91399720008485,461.91399720008485,None,1,,,,,,,,,,,,,,,,,,,,,,,,,,,,,,,,,,,,,,,,,,,,,,,,,,,,,,,,11,001,2023-04-18_10h16.23.318,PGNGS_RST_750_english,2022.2.5,60.025270649682234,
L_w.bmp,None,L_w.bmp,None,L_d.bmp,None,L_k.bmp,None,L_p.bmp,None,L_s.bmp,None,L_f.bmp,None,0.75,0.75,0,98,98,98,,,,,,,,,,,,,,,,,,,,,,,,,,,,,,462.6633724999847,462.6633724999847,None,1,,,,,,,,,,,,,,,,,,,,,,,,,,,,,,,,,,,,,,,,,,,,,,,,,,,,,,,,11,001,2023-04-18_10h16.23.318,PGNGS_RST_750_english,2022.2.5,60.025270649682234,
L_h.bmp,None,L_p.bmp,None,L_s.bmp,n,L_q.bmp,None,L_d.bmp,None,L_q.bmp,None,L_m.bmp,None,0.75,0.75,0,99,99,99,,,,,,,,,,,,,,,,,,,,,,,,,,,,,,463.41281170002185,463.41281170002185,None,1,,,,,,,,,,,,,,,,,,,,,,,,,,,,,,,,,,,,,,,,,,,,,,,,,,,,,,,,11,001,2023-04-18_10h16.23.318,PGNGS_RST_750_english,2022.2.5,60.025270649682234,
L_w.bmp,None,L_s.bmp,n,L_m.bmp,None,L_w.bmp,None,L_r.bmp,n,L_m.bmp,None,L_g.bmp,None,0.75,0.75,0,100,100,100,,,,,,,,,,,,,,,,,,,,,,,,,,,,,,464.1620304000098,464.1620304000098,None,1,,,,,,,,,,,,,,,,,,,,,,,,,,,,,,,,,,,,,,,,,,,,,,,,,,,,,,,,11,001,2023-04-18_10h16.23.318,PGNGS_RST_750_english,2022.2.5,60.025270649682234,
L_g.bmp,None,L_f.bmp,None,L_q.bmp,None,L_j.bmp,None,L_m.bmp,None,L_b.bmp,None,L_l.bmp,None,0.75,0.75,0,101,101,101,,,,,,,,,,,,,,,,,,,,,,,,,,,,,,464.91150490008295,464.91150490008295,None,1,,,,,,,,,,,,,,,,,,,,,,,,,,,,,,,,,,,,,,,,,,,,,,,,,,,,,,,,11,001,2023-04-18_10h16.23.318,PGNGS_RST_750_english,2022.2.5,60.025270649682234,
L_m.bmp,None,L_w.bmp,None,L_l.bmp,None,L_p.bmp,None,L_q.bmp,None,L_h.bmp,None,L_d.bmp,None,0.75,0.75,0,102,102,102,,,,,,,,,,,,,,,,,,,,,,,,,,,,,,465.6609272999922,465.6609272999922,None,1,,,,,,,,,,,,,,,,,,,,,,,,,,,,,,,,,,,,,,,,,,,,,,,,,,,,,,,,11,001,2023-04-18_10h16.23.318,PGNGS_RST_750_english,2022.2.5,60.025270649682234,
L_w.bmp,None,L_m.bmp,None,L_r.bmp,n,L_g.bmp,None,L_k.bmp,None,L_m.bmp,None,L_h.bmp,None,0.75,0.75,0,103,103,103,,,,,,,,,,,,,,,,,,,,,,,,,,,,,,466.41058300004806,466.41058300004806,None,1,,467.1600289000198,467.1600289000198,,,,,,,,,,,,,,,,,,,,,,,,,,,,,,,,,,,,,,,,,,,,,,,,,,,,,11,001,2023-04-18_10h16.23.318,PGNGS_RST_750_english,2022.2.5,60.025270649682234,
L_h.bmp,None,L_r.bmp,n,L_g.bmp,None,L_q.bmp,None,L_t.bmp,n,L_s.bmp,n,L_d.bmp,None,0.75,0.75,0,104,104,104,,,,,,,,,,,,,,,,,,,,,,,,,,,,,,467.1600289000198,467.1600289000198,None,1,,467.90908220002893,467.90908220002893,,,,,,,,,,,,,,,,,,,,,,,,,,,,,,,,,,,,,,,,,,,,,,,,,,,,,11,001,2023-04-18_10h16.23.318,PGNGS_RST_750_english,2022.2.5,60.025270649682234,
L_r.bmp,n,L_p.bmp,None,L_m.bmp,None,L_w.bmp,None,L_b.bmp,None,L_v.bmp,None,L_g.bmp,None,0.75,0.75,0,105,105,105,,,,,,,,,,,,,,,,,,,,,,,,,,,,,,467.90908220002893,467.90908220002893,None,0,,468.6588272000663,468.6588272000663,,,,,,,,,,,,,,,,,,,,,,,,,,,,,,,,,,,,,,,,,,,,,,,,,,,,,11,001,2023-04-18_10h16.23.318,PGNGS_RST_750_english,2022.2.5,60.025270649682234,
L_b.bmp,None,L_d.bmp,None,L_k.bmp,None,L_d.bmp,None,L_m.bmp,None,L_q.bmp,None,L_m.bmp,None,0.75,0.75,0,106,106,106,,,,,,,,,,,,,,,,,,,,,,,,,,,,,,468.6588272000663,468.6588272000663,n,0,0.03636610007379204,469.40787470003124,469.40787470003124,,,,,,,,,,,,,,,,,,,,,,,,,,,,,,,,,,,,,,,,,,,,,,,,,,,,,11,001,2023-04-18_10h16.23.318,PGNGS_RST_750_english,2022.2.5,60.025270649682234,
L_v.bmp,None,L_c.bmp,None,L_c.bmp,None,L_f.bmp,None,L_g.bmp,None,L_t.bmp,n,L_d.bmp,None,0.75,0.75,0,107,107,107,,,,,,,,,,,,,,,,,,,,,,,,,,,,,,469.40787470003124,469.40787470003124,None,1,,470.15719810000155,470.15719810000155,,,,,,,,,,,,,,,,,,,,,,,,,,,,,,,,,,,,,,,,,,,,,,,,,,,,,11,001,2023-04-18_10h16.23.318,PGNGS_RST_750_english,2022.2.5,60.025270649682234,
L_h.bmp,None,L_s.bmp,n,L_s.bmp,None,L_s.bmp,n,L_t.bmp,None,L_p.bmp,None,L_h.bmp,None,0.3,0.75,0,108,108,108,,,,,,,,,,,,,,,,,,,,,,,,,,,,,,470.15719810000155,470.15719810000155,None,1,,470.90658190008253,470.90658190008253,,,,,,,,,,,,,,,,,,,,,,,,,,,,,,,,,,,,,,,,,,,,,,,,,,,,,11,001,2023-04-18_10h16.23.318,PGNGS_RST_750_english,2022.2.5,60.025270649682234,
L_w.bmp,None,L_q.bmp,None,Stop.bmp,None,L_f.bmp,None,L_g.bmp,None,L_f.bmp,None,L_r.bmp,n,0.45,0.75,0,109,109,109,,,,,,,,,,,,,,,,,,,,,,,,,,,,,,470.90658190008253,470.90658190008253,None,1,,471.6560852000257,471.6560852000257,,,,,,,,,,,,,,,,,,,,,,,,,,,,,,,,,,,,,,,,,,,,,,,,,,,,,11,001,2023-04-18_10h16.23.318,PGNGS_RST_750_english,2022.2.5,60.025270649682234,
L_m.bmp,None,L_k.bmp,None,L_k.bmp,None,L_n.bmp,None,L_h.bmp,None,L_p.bmp,None,L_k.bmp,None,0.75,0.75,0,110,110,110,,,,,,,,,,,,,,,,,,,,,,,,,,,,,,471.6560852000257,471.6560852000257,None,1,,472.40536970004905,472.40536970004905,,,,,,,,,,,,,,,,,,,,,,,,,,,,,,,,,,,,,,,,,,,,,,,,,,,,,11,001,2023-04-18_10h16.23.318,PGNGS_RST_750_english,2022.2.5,60.025270649682234,
L_j.bmp,None,L_b.bmp,None,L_f.bmp,None,L_w.bmp,None,L_g.bmp,None,L_c.bmp,None,L_q.bmp,None,0.75,0.75,0,111,111,111,,,,,,,,,,,,,,,,,,,,,,,,,,,,,,472.40536970004905,472.40536970004905,None,1,,473.15460930007976,473.15460930007976,,,,,,,,,,,,,,,,,,,,,,,,,,,,,,,,,,,,,,,,,,,,,,,,,,,,,11,001,2023-04-18_10h16.23.318,PGNGS_RST_750_english,2022.2.5,60.025270649682234,
L_m.bmp,None,L_r.bmp,n,L_p.bmp,None,L_b.bmp,None,L_p.bmp,None,L_n.bmp,None,L_s.bmp,n,0.75,0.75,0,112,112,112,,,,,,,,,,,,,,,,,,,,,,,,,,,,,,473.15460930007976,473.15460930007976,None,1,,473.90409289998934,473.90409289998934,,,,,,,,,,,,,,,,,,,,,,,,,,,,,,,,,,,,,,,,,,,,,,,,,,,,,11,001,2023-04-18_10h16.23.318,PGNGS_RST_750_english,2022.2.5,60.025270649682234,
L_g.bmp,None,L_m.bmp,None,L_c.bmp,None,L_s.bmp,n,L_c.bmp,None,L_b.bmp,None,L_q.bmp,None,0.75,0.75,0,113,113,113,,,,,,,,,,,,,,,,,,,,,,,,,,,,,,473.90409289998934,473.90409289998934,None,1,,474.65357000008225,474.65357000008225,,,,,,,,,,,,,,,,,,,,,,,,,,,,,,,,,,,,,,,,,,,,,,,,,,,,,11,001,2023-04-18_10h16.23.318,PGNGS_RST_750_english,2022.2.5,60.025270649682234,
L_k.bmp,None,L_l.bmp,None,L_r.bmp,n,L_v.bmp,None,L_r.bmp,n,L_v.bmp,None,L_f.bmp,None,0.75,0.75,0,114,114,114,,,,,,,,,,,,,,,,,,,,,,,,,,,,,,474.65357000008225,474.65357000008225,None,1,,475.402872000006,475.402872000006,,,,,,,,,,,,,,,,,,,,,,,,,,,,,,,,,,,,,,,,,,,,,,,,,,,,,11,001,2023-04-18_10h16.23.318,PGNGS_RST_750_english,2022.2.5,60.025270649682234,
L_b.bmp,None,L_h.bmp,None,L_k.bmp,None,L_q.bmp,None,L_h.bmp,None,L_d.bmp,None,L_l.bmp,None,0.75,0.75,0,115,115,115,,,,,,,,,,,,,,,,,,,,,,,,,,,,,,475.402872000006,475.402872000006,None,1,,476.15229340002406,476.15229340002406,,,,,,,,,,,,,,,,,,,,,,,,,,,,,,,,,,,,,,,,,,,,,,,,,,,,,11,001,2023-04-18_10h16.23.318,PGNGS_RST_750_english,2022.2.5,60.025270649682234,
L_r.bmp,n,L_g.bmp,None,L_h.bmp,None,L_d.bmp,None,L_d.bmp,None,L_b.bmp,None,L_f.bmp,None,0.75,0.75,0,116,116,116,,,,,,,,,,,,,,,,,,,,,,,,,,,,,,476.15229340002406,476.15229340002406,n,1,0.5437210999662057,476.9017564000096,476.9017564000096,,,,,,,,,,,,,,,,,,,,,,,,,,,,,,,,,,,,,,,,,,,,,,,,,,,,,11,001,2023-04-18_10h16.23.318,PGNGS_RST_750_english,2022.2.5,60.025270649682234,
L_n.bmp,None,L_r.bmp,None,L_m.bmp,None,L_r.bmp,n,L_m.bmp,None,L_s.bmp,n,L_r.bmp,None,0.75,0.25,0,117,117,117,,,,,,,,,,,,,,,,,,,,,,,,,,,,,,476.9017564000096,476.9017564000096,None,1,,477.6511767000193,477.6511767000193,,,,,,,,,,,,,,,,,,,,,,,,,,,,,,,,,,,,,,,,,,,,,,,,,,,,,11,001,2023-04-18_10h16.23.318,PGNGS_RST_750_english,2022.2.5,60.025270649682234,
L_q.bmp,None,L_g.bmp,None,L_j.bmp,None,L_v.bmp,None,L_j.bmp,None,L_b.bmp,None,Stop.bmp,None,0.75,0.5,0,118,118,118,,,,,,,,,,,,,,,,,,,,,,,,,,,,,,477.6511767000193,477.6511767000193,None,1,,478.4004837999819,478.4004837999819,,,,,,,,,,,,,,,,,,,,,,,,,,,,,,,,,,,,,,,,,,,,,,,,,,,,,11,001,2023-04-18_10h16.23.318,PGNGS_RST_750_english,2022.2.5,60.025270649682234,
L_f.bmp,None,L_p.bmp,None,L_p.bmp,None,L_c.bmp,None,L_p.bmp,None,L_k.bmp,None,L_n.bmp,None,0.75,0.75,0,119,119,119,,,,,,,,,,,,,,,,,,,,,,,,,,,,,,478.4004837999819,478.4004837999819,None,1,,479.1500132000074,479.1500132000074,,,,,,,,,,,,,,,,,,,,,,,,,,,,,,,,,,,,,,,,,,,,,,,,,,,,,11,001,2023-04-18_10h16.23.318,PGNGS_RST_750_english,2022.2.5,60.025270649682234,
L_r.bmp,n,L_c.bmp,None,L_g.bmp,None,L_j.bmp,None,L_b.bmp,None,L_m.bmp,None,L_j.bmp,None,0.75,0.75,0,120,120,120,,,,,,,,,,,,,,,,,,,,,,,,,,,,,,479.1500132000074,479.1500132000074,None,0,,479.89983240002766,479.89983240002766,,,,,,,,,,,,,,,,,,,,,,,,,,,,,,,,,,,,,,,,,,,,,,,,,,,,,11,001,2023-04-18_10h16.23.318,PGNGS_RST_750_english,2022.2.5,60.025270649682234,
L_p.bmp,None,L_s.bmp,n,L_s.bmp,None,L_k.bmp,None,L_s.bmp,n,L_t.bmp,None,L_s.bmp,n,0.25,0.75,0,121,121,121,,,,,,,,,,,,,,,,,,,,,,,,,,,,,,479.89983240002766,479.89983240002766,None,1,,480.648831800092,480.648831800092,,,,,,,,,,,,,,,,,,,,,,,,,,,,,,,,,,,,,,,,,,,,,,,,,,,,,11,001,2023-04-18_10h16.23.318,PGNGS_RST_750_english,2022.2.5,60.025270649682234,
L_k.bmp,None,L_g.bmp,None,Stop.bmp,None,L_w.bmp,None,L_b.bmp,None,L_j.bmp,None,L_v.bmp,None,0.5,0.75,0,122,122,122,,,,,,,,,,,,,,,,,,,,,,,,,,,,,,480.648831800092,480.648831800092,None,1,,481.3981174000073,481.3981174000073,,,,,,,,,,,,,,,,,,,,,,,,,,,,,,,,,,,,,,,,,,,,,,,,,,,,,11,001,2023-04-18_10h16.23.318,PGNGS_RST_750_english,2022.2.5,60.025270649682234,
L_s.bmp,n,L_h.bmp,None,L_g.bmp,None,L_t.bmp,n,L_f.bmp,None,L_v.bmp,None,L_f.bmp,None,0.75,0.75,0,123,123,123,,,,,,,,,,,,,,,,,,,,,,,,,,,,,,481.3981174000073,481.3981174000073,n,1,0.5445290000643581,482.1474847000791,482.1474847000791,,,,,,,,,,,,,,,,,,,,,,,,,,,,,,,,,,,,,,,,,,,,,,,,,,,,,11,001,2023-04-18_10h16.23.318,PGNGS_RST_750_english,2022.2.5,60.025270649682234,
L_f.bmp,None,L_m.bmp,None,L_k.bmp,None,L_f.bmp,None,L_r.bmp,n,L_l.bmp,None,L_d.bmp,None,0.75,0.75,0,124,124,124,,,,,,,,,,,,,,,,,,,,,,,,,,,,,,482.1474847000791,482.1474847000791,None,1,,482.89673240005504,482.89673240005504,,,,,,,,,,,,,,,,,,,,,,,,,,,,,,,,,,,,,,,,,,,,,,,,,,,,,11,001,2023-04-18_10h16.23.318,PGNGS_RST_750_english,2022.2.5,60.025270649682234,
L_g.bmp,None,L_j.bmp,None,L_r.bmp,n,L_m.bmp,None,L_w.bmp,None,L_f.bmp,None,L_w.bmp,None,0.75,0.75,0,125,125,125,,,,,,,,,,,,,,,,,,,,,,,,,,,,,,482.89673240005504,482.89673240005504,None,1,,483.6463760000188,483.6463760000188,,,,,,,,,,,,,,,,,,,,,,,,,,,,,,,,,,,,,,,,,,,,,,,,,,,,,11,001,2023-04-18_10h16.23.318,PGNGS_RST_750_english,2022.2.5,60.025270649682234,
L_k.bmp,None,L_p.bmp,None,L_b.bmp,None,L_g.bmp,None,L_h.bmp,None,L_b.bmp,None,L_q.bmp,None,0.75,0.75,0,126,126,126,,,,,,,,,,,,,,,,,,,,,,,,,,,,,,483.6463760000188,483.6463760000188,None,1,,484.3955530000385,484.3955530000385,,,,,,,,,,,,,,,,,,,,,,,,,,,,,,,,,,,,,,,,,,,,,,,,,,,,,11,001,2023-04-18_10h16.23.318,PGNGS_RST_750_english,2022.2.5,60.025270649682234,
L_w.bmp,None,L_b.bmp,None,L_g.bmp,None,L_l.bmp,None,L_k.bmp,None,L_p.bmp,None,L_b.bmp,None,0.75,0.75,0,127,127,127,,,,,,,,,,,,,,,,,,,,,,,,,,,,,,484.3955530000385,484.3955530000385,None,1,,485.14502450008877,485.14502450008877,,,,,,,,,,,,,,,,,,,,,,,,,,,,,,,,,,,,,,,,,,,,,,,,,,,,,11,001,2023-04-18_10h16.23.318,PGNGS_RST_750_english,2022.2.5,60.025270649682234,
L_j.bmp,None,L_s.bmp,None,L_l.bmp,None,L_w.bmp,None,L_r.bmp,None,L_j.bmp,None,L_k.bmp,None,0.75,0.75,0,128,128,128,,,,,,,,,,,,,,,,,,,,,,,,,,,,,,485.14502450008877,485.14502450008877,None,1,,485.8943397999974,485.8943397999974,,,,,,,,,,,,,,,,,,,,,,,,,,,,,,,,,,,,,,,,,,,,,,,,,,,,,11,001,2023-04-18_10h16.23.318,PGNGS_RST_750_english,2022.2.5,60.025270649682234,
L_p.bmp,None,L_g.bmp,None,L_s.bmp,n,L_h.bmp,None,L_q.bmp,None,L_m.bmp,None,L_c.bmp,None,0.75,0.75,0,129,129,129,,,,,,,,,,,,,,,,,,,,,,,,,,,,,,485.8943397999974,485.8943397999974,None,1,,486.6439760000212,486.6439760000212,,,,,,,,,,,,,,,,,,,,,,,,,,,,,,,,,,,,,,,,,,,,,,,,,,,,,11,001,2023-04-18_10h16.23.318,PGNGS_RST_750_english,2022.2.5,60.025270649682234,
L_g.bmp,None,L_b.bmp,None,L_k.bmp,None,L_w.bmp,None,L_d.bmp,None,L_c.bmp,None,L_b.bmp,None,0.75,0.75,0,130,130,130,,,,,,,,,,,,,,,,,,,,,,,,,,,,,,486.6439760000212,486.6439760000212,None,1,,487.3931797000114,487.3931797000114,,,,,,,,,,,,,,,,,,,,,,,,,,,,,,,,,,,,,,,,,,,,,,,,,,,,,11,001,2023-04-18_10h16.23.318,PGNGS_RST_750_english,2022.2.5,60.025270649682234,
L_q.bmp,None,L_w.bmp,None,L_k.bmp,None,L_g.bmp,None,L_l.bmp,None,L_h.bmp,None,L_t.bmp,n,0.75,0.75,0,131,131,131,,,,,,,,,,,,,,,,,,,,,,,,,,,,,,487.3931797000114,487.3931797000114,None,1,,488.142435100046,488.142435100046,,,,,,,,,,,,,,,,,,,,,,,,,,,,,,,,,,,,,,,,,,,,,,,,,,,,,11,001,2023-04-18_10h16.23.318,PGNGS_RST_750_english,2022.2.5,60.025270649682234,
L_w.bmp,None,L_r.bmp,n,L_r.bmp,n,L_m.bmp,None,L_j.bmp,None,L_b.bmp,None,L_l.bmp,None,0.75,0.75,0,132,132,132,,,,,,,,,,,,,,,,,,,,,,,,,,,,,,488.142435100046,488.142435100046,None,1,,488.8916703000432,488.8916703000432,,,,,,,,,,,,,,,,,,,,,,,,,,,,,,,,,,,,,,,,,,,,,,,,,,,,,11,001,2023-04-18_10h16.23.318,PGNGS_RST_750_english,2022.2.5,60.025270649682234,
L_d.bmp,None,L_b.bmp,None,L_f.bmp,None,L_w.bmp,None,L_f.bmp,None,L_l.bmp,None,L_h.bmp,None,0.75,0.75,0,133,133,133,,,,,,,,,,,,,,,,,,,,,,,,,,,,,,488.9086909000762,488.9086909000762,None,1,,489.6581746999873,489.6581746999873,,,,,,,,,,,,,,,,,,,,,,,,,,,,,,,,,,,,,,,,,,,,,,,,,,,,,11,001,2023-04-18_10h16.23.318,PGNGS_RST_750_english,2022.2.5,60.025270649682234,
L_f.bmp,None,L_k.bmp,None,L_c.bmp,None,L_h.bmp,None,L_s.bmp,n,L_t.bmp,n,L_s.bmp,n,0.75,0.75,0,134,134,134,,,,,,,,,,,,,,,,,,,,,,,,,,,,,,489.6581746999873,489.6581746999873,None,1,,490.40725839999504,490.40725839999504,,,,,,,,,,,,,,,,,,,,,,,,,,,,,,,,,,,,,,,,,,,,,,,,,,,,,11,001,2023-04-18_10h16.23.318,PGNGS_RST_750_english,2022.2.5,60.025270649682234,
L_s.bmp,n,L_g.bmp,None,L_v.bmp,None,L_r.bmp,n,L_b.bmp,None,L_p.bmp,None,L_v.bmp,None,0.75,0.75,0,135,135,135,,,,,,,,,,,,,,,,,,,,,,,,,,,,,,490.40725839999504,490.40725839999504,n,1,0.5441686999984086,491.15652309998404,491.15652309998404,,,,,,,,,,,,,,,,,,,,,,,,,,,,,,,,,,,,,,,,,,,,,,,,,,,,,11,001,2023-04-18_10h16.23.318,PGNGS_RST_750_english,2022.2.5,60.025270649682234,
L_j.bmp,None,L_s.bmp,n,L_f.bmp,None,L_j.bmp,None,L_p.bmp,None,L_k.bmp,None,L_w.bmp,None,0.75,0.75,0,136,136,136,,,,,,,,,,,,,,,,,,,,,,,,,,,,,,491.15652309998404,491.15652309998404,None,1,,491.906285700039,491.906285700039,,,,,,,,,,,,,,,,,,,,,,,,,,,,,,,,,,,,,,,,,,,,,,,,,,,,,11,001,2023-04-18_10h16.23.318,PGNGS_RST_750_english,2022.2.5,60.025270649682234,
L_k.bmp,None,L_g.bmp,None,L_k.bmp,None,L_k.bmp,None,L_w.bmp,None,L_f.bmp,None,L_j.bmp,None,0.75,0.75,0,137,137,137,,,,,,,,,,,,,,,,,,,,,,,,,,,,,,491.906285700039,491.906285700039,None,1,,492.6553176000016,492.6553176000016,,,,,,,,,,,,,,,,,,,,,,,,,,,,,,,,,,,,,,,,,,,,,,,,,,,,,11,001,2023-04-18_10h16.23.318,PGNGS_RST_750_english,2022.2.5,60.025270649682234,
L_r.bmp,n,L_b.bmp,None,L_h.bmp,None,L_r.bmp,n,L_f.bmp,None,L_w.bmp,None,L_r.bmp,None,0.75,0.25,0,138,138,138,,,,,,,,,,,,,,,,,,,,,,,,,,,,,,492.6553176000016,492.6553176000016,n,1,0.6170813000062481,493.4047685000114,493.4047685000114,,,,,,,,,,,,,,,,,,,,,,,,,,,,,,,,,,,,,,,,,,,,,,,,,,,,,11,001,2023-04-18_10h16.23.318,PGNGS_RST_750_english,2022.2.5,60.025270649682234,
L_k.bmp,None,L_r.bmp,n,L_g.bmp,None,L_k.bmp,None,L_k.bmp,None,L_p.bmp,None,Stop.bmp,None,0.75,0.5,0,139,139,139,,,,,,,,,,,,,,,,,,,,,,,,,,,,,,493.4047685000114,493.4047685000114,None,1,,494.1543204000918,494.1543204000918,,,,,,,,,,,,,,,,,,,,,,,,,,,,,,,,,,,,,,,,,,,,,,,,,,,,,11,001,2023-04-18_10h16.23.318,PGNGS_RST_750_english,2022.2.5,60.025270649682234,
L_f.bmp,None,L_j.bmp,None,L_v.bmp,None,L_f.bmp,None,L_p.bmp,None,L_b.bmp,None,L_k.bmp,None,0.75,0.75,0,140,140,140,,,,,,,,,,,,,,,,,,,,,,,,,,,,,,494.1543204000918,494.1543204000918,None,1,,494.90331670001615,494.90331670001615,,,,,,,,,,,,,,,,,,,,,,,,,,,,,,,,,,,,,,,,,,,,,,,,,,,,,11,001,2023-04-18_10h16.23.318,PGNGS_RST_750_english,2022.2.5,60.025270649682234,
L_l.bmp,None,L_b.bmp,None,L_c.bmp,None,L_l.bmp,None,L_t.bmp,n,L_s.bmp,n,L_g.bmp,None,0.75,0.75,0,141,141,141,,,,,,,,,,,,,,,,,,,,,,,,,,,,,,494.90331670001615,494.90331670001615,None,1,,495.6527826000238,495.6527826000238,,,,,,,,,,,,,,,,,,,,,,,,,,,,,,,,,,,,,,,,,,,,,,,,,,,,,11,001,2023-04-18_10h16.23.318,PGNGS_RST_750_english,2022.2.5,60.025270649682234,
L_s.bmp,n,L_s.bmp,n,L_w.bmp,None,L_t.bmp,n,L_l.bmp,None,L_f.bmp,None,L_f.bmp,None,0.75,0.75,0,142,142,142,,,,,,,,,,,,,,,,,,,,,,,,,,,,,,495.6527826000238,495.6527826000238,n,1,0.5622973999707028,496.4026527000824,496.4026527000824,,,,,,,,,,,,,,,,,,,,,,,,,,,,,,,,,,,,,,,,,,,,,,,,,,,,,11,001,2023-04-18_10h16.23.318,PGNGS_RST_750_english,2022.2.5,60.025270649682234,
L_n.bmp,None,L_n.bmp,None,L_m.bmp,None,L_n.bmp,None,L_b.bmp,None,L_j.bmp,None,L_j.bmp,None,0.75,0.75,0,143,143,143,,,,,,,,,,,,,,,,,,,,,,,,,,,,,,496.4026527000824,496.4026527000824,None,1,,497.15154210000765,497.15154210000765,,,,,,,,,,,,,,,,,,,,,,,,,,,,,,,,,,,,,,,,,,,,,,,,,,,,,11,001,2023-04-18_10h16.23.318,PGNGS_RST_750_english,2022.2.5,60.025270649682234,
L_d.bmp,None,L_j.bmp,None,L_n.bmp,None,L_d.bmp,None,L_h.bmp,None,L_l.bmp,None,L_q.bmp,None,0.75,0.75,0,144,144,144,,,,,,,,,,,,,,,,,,,,,,,,,,,,,,497.15154210000765,497.15154210000765,None,1,,497.9009772000136,497.9009772000136,,,,,,,,,,,,,,,,,,,,,,,,,,,,,,,,,,,,,,,,,,,,,,,,,,,,,11,001,2023-04-18_10h16.23.318,PGNGS_RST_750_english,2022.2.5,60.025270649682234,
L_s.bmp,n,L_h.bmp,None,L_p.bmp,None,L_s.bmp,n,L_c.bmp,None,L_d.bmp,None,L_c.bmp,None,0.75,0.75,0,145,145,145,,,,,,,,,,,,,,,,,,,,,,,,,,,,,,497.9009772000136,497.9009772000136,n,1,0.5698497999692336,498.6506357000908,498.6506357000908,,,,,,,,,,,,,,,,,,,,,,,,,,,,,,,,,,,,,,,,,,,,,,,,,,,,,11,001,2023-04-18_10h16.23.318,PGNGS_RST_750_english,2022.2.5,60.025270649682234,
L_v.bmp,None,L_m.bmp,None,L_v.bmp,None,L_v.bmp,None,L_m.bmp,None,L_q.bmp,None,L_n.bmp,None,0.75,0.75,0,146,146,146,,,,,,,,,,,,,,,,,,,,,,,,,,,,,,498.6506357000908,498.6506357000908,None,1,,499.40009790007025,499.40009790007025,,,,,,,,,,,,,,,,,,,,,,,,,,,,,,,,,,,,,,,,,,,,,,,,,,,,,11,001,2023-04-18_10h16.23.318,PGNGS_RST_750_english,2022.2.5,60.025270649682234,
L_f.bmp,None,L_q.bmp,None,L_p.bmp,None,L_f.bmp,None,L_j.bmp,None,L_r.bmp,None,L_h.bmp,None,0.75,0.75,0,147,147,147,,,,,,,,,,,,,,,,,,,,,,,,,,,,,,499.40009790007025,499.40009790007025,None,1,,500.14933210005984,500.14933210005984,,,,,,,,,,,,,,,,,,,,,,,,,,,,,,,,,,,,,,,,,,,,,,,,,,,,,11,001,2023-04-18_10h16.23.318,PGNGS_RST_750_english,2022.2.5,60.025270649682234,
L_w.bmp,None,L_b.bmp,None,L_w.bmp,None,L_w.bmp,None,L_p.bmp,None,L_k.bmp,None,L_g.bmp,None,0.75,0.75,0,148,148,148,,,,,,,,,,,,,,,,,,,,,,,,,,,,,,500.14933210005984,500.14933210005984,None,1,,500.89871650002897,500.89871650002897,,,,,,,,,,,,,,,,,,,,,,,,,,,,,,,,,,,,,,,,,,,,,,,,,,,,,11,001,2023-04-18_10h16.23.318,PGNGS_RST_750_english,2022.2.5,60.025270649682234,
L_q.bmp,None,L_g.bmp,None,L_s.bmp,None,L_q.bmp,None,L_b.bmp,None,L_h.bmp,None,L_l.bmp,None,0.25,0.75,0,149,149,149,,,,,,,,,,,,,,,,,,,,,,,,,,,,,,500.89871650002897,500.89871650002897,None,1,,501.6480087999953,501.6480087999953,,,,,,,,,,,,,,,,,,,,,,,,,,,,,,,,,,,,,,,,,,,,,,,,,,,,,11,001,2023-04-18_10h16.23.318,PGNGS_RST_750_english,2022.2.5,60.025270649682234,
L_k.bmp,None,L_r.bmp,n,Stop.bmp,None,L_k.bmp,None,L_f.bmp,None,L_w.bmp,None,L_t.bmp,n,0.5,0.75,0,150,150,150,,,,,,,,,,,,,,,,,,,,,,,,,,,,,,501.6480087999953,501.6480087999953,None,1,,502.39741640002467,502.39741640002467,,,,,,,,,,,,,,,,,,,,,,,,,,,,,,,,,,,,,,,,,,,,,,,,,,,,,11,001,2023-04-18_10h16.23.318,PGNGS_RST_750_english,2022.2.5,60.025270649682234,
L_b.bmp,None,L_j.bmp,None,L_q.bmp,None,L_b.bmp,None,L_l.bmp,None,L_r.bmp,n,L_b.bmp,None,0.75,0.75,0,151,151,151,,,,,,,,,,,,,,,,,,,,,,,,,,,,,,502.39741640002467,502.39741640002467,None,1,,503.1468920999905,503.1468920999905,,,,,,,,,,,,,,,,,,,,,,,,,,,,,,,,,,,,,,,,,,,,,,,,,,,,,11,001,2023-04-18_10h16.23.318,PGNGS_RST_750_english,2022.2.5,60.025270649682234,
L_f.bmp,None,L_f.bmp,None,L_k.bmp,None,L_j.bmp,None,L_v.bmp,None,L_f.bmp,None,L_q.bmp,None,0.75,0.75,0,152,152,152,,,,,,,,,,,,,,,,,,,,,,,,,,,,,,503.1468920999905,503.1468920999905,None,1,,503.8964621000923,503.8964621000923,,,,,,,,,,,,,,,,,,,,,,,,,,,,,,,,,,,,,,,,,,,,,,,,,,,,,11,001,2023-04-18_10h16.23.318,PGNGS_RST_750_english,2022.2.5,60.025270649682234,
L_j.bmp,None,L_v.bmp,None,L_r.bmp,n,L_c.bmp,None,L_j.bmp,None,L_b.bmp,None,L_k.bmp,None,0.75,0.75,0,153,153,153,,,,,,,,,,,,,,,,,,,,,,,,,,,,,,503.8964621000923,503.8964621000923,None,1,,504.6457532000495,504.6457532000495,,,,,,,,,,,,,,,,,,,,,,,,,,,,,,,,,,,,,,,,,,,,,,,,,,,,,11,001,2023-04-18_10h16.23.318,PGNGS_RST_750_english,2022.2.5,60.025270649682234,
L_s.bmp,n,L_f.bmp,None,L_g.bmp,None,L_s.bmp,n,L_t.bmp,None,L_s.bmp,n,L_f.bmp,None,0.75,0.75,0,154,154,154,,,,,,,,,,,,,,,,,,,,,,,,,,,,,,504.6457532000495,504.6457532000495,n,1,0.6577569999499246,505.3948937000241,505.3948937000241,,,,,,,,,,,,,,,,,,,,,,,,,,,,,,,,,,,,,,,,,,,,,,,,,,,,,11,001,2023-04-18_10h16.23.318,PGNGS_RST_750_english,2022.2.5,60.025270649682234,
L_b.bmp,None,L_g.bmp,None,L_j.bmp,None,L_b.bmp,None,L_m.bmp,None,L_b.bmp,None,L_g.bmp,None,0.75,0.75,0,155,155,155,,,,,,,,,,,,,,,,,,,,,,,,,,,,,,505.3948937000241,505.3948937000241,None,1,,506.1445326000685,506.1445326000685,,,,,,,,,,,,,,,,,,,,,,,,,,,,,,,,,,,,,,,,,,,,,,,,,,,,,11,001,2023-04-18_10h16.23.318,PGNGS_RST_750_english,2022.2.5,60.025270649682234,
L_q.bmp,None,L_h.bmp,None,L_k.bmp,None,L_q.bmp,None,L_k.bmp,None,L_p.bmp,None,L_h.bmp,None,0.75,0.75,0,156,156,156,,,,,,,,,,,,,,,,,,,,,,,,,,,,,,506.1445326000685,506.1445326000685,None,1,,506.89386180008296,506.89386180008296,,,,,,,,,,,,,,,,,,,,,,,,,,,,,,,,,,,,,,,,,,,,,,,,,,,,,11,001,2023-04-18_10h16.23.318,PGNGS_RST_750_english,2022.2.5,60.025270649682234,
L_m.bmp,None,L_b.bmp,None,L_s.bmp,n,L_m.bmp,None,L_b.bmp,None,L_j.bmp,None,L_b.bmp,None,0.75,0.75,0,157,157,157,,,,,,,,,,,,,,,,,,,,,,,,,,,,,,506.89386180008296,506.89386180008296,None,1,,507.6431292000925,507.6431292000925,,,,,,,,,,,,,,,,,,,,,,,,,,,,,,,,,,,,,,,,,,,,,,,,,,,,,11,001,2023-04-18_10h16.23.318,PGNGS_RST_750_english,2022.2.5,60.025270649682234,
L_q.bmp,None,L_v.bmp,None,L_v.bmp,None,L_q.bmp,None,L_s.bmp,n,L_m.bmp,None,L_v.bmp,None,0.75,0.75,0,158,158,158,,,,,,,,,,,,,,,,,,,,,,,,,,,,,,507.6431292000925,507.6431292000925,None,1,,508.3925680000102,508.3925680000102,,,,,,,,,,,,,,,,,,,,,,,,,,,,,,,,,,,,,,,,,,,,,,,,,,,,,11,001,2023-04-18_10h16.23.318,PGNGS_RST_750_english,2022.2.5,60.025270649682234,
L_f.bmp,None,L_c.bmp,None,L_m.bmp,None,L_f.bmp,None,L_b.bmp,None,L_d.bmp,None,L_b.bmp,None,0.75,0.75,0,159,159,159,,,,,,,,,,,,,,,,,,,,,,,,,,,,,,508.3925680000102,508.3925680000102,None,1,,509.14177129999734,509.14177129999734,,,,,,,,,,,,,,,,,,,,,,,,,,,,,,,,,,,,,,,,,,,,,,,,,,,,,11,001,2023-04-18_10h16.23.318,PGNGS_RST_750_english,2022.2.5,60.025270649682234,
L_j.bmp,None,L_l.bmp,None,L_g.bmp,None,L_j.bmp,None,L_d.bmp,None,L_h.bmp,None,L_r.bmp,None,0.75,0.3,0,160,160,160,,,,,,,,,,,,,,,,,,,,,,,,,,,,,,509.1585169000318,509.1585169000318,None,1,,509.9079051000299,509.9079051000299,,,,,,,,,,,,,,,,,,,,,,,,,,,,,,,,,,,,,,,,,,,,,,,,,,,,,11,001,2023-04-18_10h16.23.318,PGNGS_RST_750_english,2022.2.5,60.025270649682234,
L_m.bmp,None,L_m.bmp,None,L_r.bmp,None,L_m.bmp,None,L_v.bmp,None,L_r.bmp,n,Stop.bmp,None,0.3,0.45,0,161,161,161,,,,,,,,,,,,,,,,,,,,,,,,,,,,,,509.9079051000299,509.9079051000299,None,1,,510.6574950000504,510.6574950000504,,,,,,,,,,,,,,,,,,,,,,,,,,,,,,,,,,,,,,,,,,,,,,,,,,,,,11,001,2023-04-18_10h16.23.318,PGNGS_RST_750_english,2022.2.5,60.025270649682234,
L_b.bmp,None,L_n.bmp,None,Stop.bmp,None,L_b.bmp,None,L_b.bmp,None,L_c.bmp,None,L_b.bmp,None,0.45,0.75,0,162,162,162,,,,,,,,,,,,,,,,,,,,,,,,,,,,,,510.6574950000504,510.6574950000504,None,1,,511.4066674000351,511.4066674000351,,,,,,,,,,,,,,,,,,,,,,,,,,,,,,,,,,,,,,,,,,,,,,,,,,,,,11,001,2023-04-18_10h16.23.318,PGNGS_RST_750_english,2022.2.5,60.025270649682234,
L_w.bmp,None,L_p.bmp,None,L_g.bmp,None,L_m.bmp,None,L_n.bmp,None,L_p.bmp,None,L_n.bmp,None,0.75,0.75,0,163,163,163,,,,,,,,,,,,,,,,,,,,,,,,,,,,,,511.4066674000351,511.4066674000351,None,1,,512.1559841000708,512.1559841000708,,,,,,,,,,,,,,,,,,,,,,,,,,,,,,,,,,,,,,,,,,,,,,,,,,,,,11,001,2023-04-18_10h16.23.318,PGNGS_RST_750_english,2022.2.5,60.025270649682234,
L_m.bmp,None,L_v.bmp,None,L_d.bmp,None,L_b.bmp,None,L_c.bmp,None,L_g.bmp,None,L_l.bmp,None,0.75,0.75,0,164,164,164,,,,,,,,,,,,,,,,,,,,,,,,,,,,,,512.1559841000708,512.1559841000708,None,1,,512.9055982000427,512.9055982000427,,,,,,,,,,,,,,,,,,,,,,,,,,,,,,,,,,,,,,,,,,,,,,,,,,,,,11,001,2023-04-18_10h16.23.318,PGNGS_RST_750_english,2022.2.5,60.025270649682234,
L_n.bmp,None,L_p.bmp,None,L_v.bmp,None,L_n.bmp,None,L_p.bmp,None,L_h.bmp,None,L_k.bmp,None,0.75,0.75,0,165,165,165,,,,,,,,,,,,,,,,,,,,,,,,,,,,,,512.9055982000427,512.9055982000427,None,1,,513.6549232000252,513.6549232000252,,,,,,,,,,,,,,,,,,,,,,,,,,,,,,,,,,,,,,,,,,,,,,,,,,,,,11,001,2023-04-18_10h16.23.318,PGNGS_RST_750_english,2022.2.5,60.025270649682234,
L_f.bmp,None,L_r.bmp,None,L_g.bmp,None,L_f.bmp,None,L_f.bmp,None,L_g.bmp,None,L_h.bmp,None,0.75,0.75,0,166,166,166,,,,,,,,,,,,,,,,,,,,,,,,,,,,,,513.6549232000252,513.6549232000252,None,1,,514.404185499996,514.404185499996,,,,,,,,,,,,,,,,,,,,,,,,,,,,,,,,,,,,,,,,,,,,,,,,,,,,,11,001,2023-04-18_10h16.23.318,PGNGS_RST_750_english,2022.2.5,60.025270649682234,
L_m.bmp,None,L_l.bmp,None,L_n.bmp,None,L_m.bmp,None,L_p.bmp,None,L_t.bmp,None,L_s.bmp,n,0.75,0.75,0,167,167,167,,,,,,,,,,,,,,,,,,,,,,,,,,,,,,514.404185499996,514.404185499996,None,1,,515.1539901000215,515.1539901000215,,,,,,,,,,,,,,,,,,,,,,,,,,,,,,,,,,,,,,,,,,,,,,,,,,,,,11,001,2023-04-18_10h16.23.318,PGNGS_RST_750_english,2022.2.5,60.025270649682234,
L_b.bmp,None,L_n.bmp,None,L_n.bmp,None,L_m.bmp,None,L_v.bmp,None,L_d.bmp,None,L_k.bmp,None,0.75,0.75,,,,,0,0,0,0,,,,,,,,,,,,,,,,,,,,,,,,,570.2752213000786,,,,,,,,515.1539901000215,515.1539901000215,522.7808724000352,532.7898757000221,532.8725645000814,542.8814786000876,542.9810335000511,552.9899978000904,553.0727862000931,565.0801201000577,565.1800214999821,565.1800214999821,571.3369103000732,571.3369103000732,571.3369103000732,None,1,,,,,,,,,,,,,,,,,,,,,,,,,,,,,,,,,,,,11,001,2023-04-18_10h16.23.318,PGNGS_RST_750_english,2022.2.5,60.025270649682234,
L_k.bmp,None,L_q.bmp,None,L_q.bmp,None,L_b.bmp,None,L_c.bmp,None,L_b.bmp,None,L_j.bmp,None,0.75,0.75,,,,,0,1,1,1,,,,,,,,,,,,,,,,,,,,,,,,,,,,,,,,,,,,,,,,,,,,,,572.0402538999915,572.0402538999915,None,1,,,,,,,,,,,,,,,,,,,,,,,,,,,,,,,,,,,,11,001,2023-04-18_10h16.23.318,PGNGS_RST_750_english,2022.2.5,60.025270649682234,
L_s.bmp,n,L_f.bmp,None,L_f.bmp,None,L_s.bmp,n,L_j.bmp,None,L_g.bmp,None,L_b.bmp,None,0.75,0.75,,,,,0,2,2,2,,,,,,,,,,,,,,,,,,,,,,,,,,,,,,,,,,,,,,,,,,,,,,572.7897681000177,572.7897681000177,None,1,,,,,,,,,,,,,,,,,,,,,,,,,,,,,,,,,,,,11,001,2023-04-18_10h16.23.318,PGNGS_RST_750_english,2022.2.5,60.025270649682234,
L_g.bmp,None,L_r.bmp,n,L_r.bmp,n,L_b.bmp,None,L_k.bmp,None,L_j.bmp,None,L_t.bmp,n,0.75,0.75,,,,,0,3,3,3,,,,,,,,,,,,,,,,,,,,,,,,,,,,,,,,,,,,,,,,,,,,,,573.5388947000029,573.5388947000029,None,0,,,,,,,,,,,,,,,,,,,,,,,,,,,,,,,,,,,,11,001,2023-04-18_10h16.23.318,PGNGS_RST_750_english,2022.2.5,60.025270649682234,
L_j.bmp,None,L_p.bmp,None,L_p.bmp,None,L_d.bmp,None,L_w.bmp,None,L_s.bmp,n,L_w.bmp,None,0.75,0.75,,,,,0,4,4,4,,,,,,,,,,,,,,,,,,,,,,,,,,,,,,,,,,,,,,,,,,,,,,574.2883282999974,574.2883282999974,None,1,,,,,,,,,,,,,,,,,,,,,,,,,,,,,,,,,,,,11,001,2023-04-18_10h16.23.318,PGNGS_RST_750_english,2022.2.5,60.025270649682234,
L_b.bmp,None,L_k.bmp,None,L_l.bmp,None,L_v.bmp,None,L_t.bmp,n,L_l.bmp,None,L_m.bmp,None,0.75,0.75,,,,,0,5,5,5,,,,,,,,,,,,,,,,,,,,,,,,,,,,,,,,,,,,,,,,,,,,,,575.0377663000254,575.0377663000254,None,1,,,,,,,,,,,,,,,,,,,,,,,,,,,,,,,,,,,,11,001,2023-04-18_10h16.23.318,PGNGS_RST_750_english,2022.2.5,60.025270649682234,
L_r.bmp,n,L_m.bmp,None,L_m.bmp,None,L_b.bmp,None,L_f.bmp,None,L_v.bmp,None,L_w.bmp,None,0.75,0.75,,,,,0,6,6,6,,,,,,,,,,,,,,,,,,,,,,,,,,,,,,,,,,,,,,,,,,,,,,575.7872213000664,575.7872213000664,None,1,,,,,,,,,,,,,,,,,,,,,,,,,,,,,,,,,,,,11,001,2023-04-18_10h16.23.318,PGNGS_RST_750_english,2022.2.5,60.025270649682234,
L_j.bmp,None,L_f.bmp,None,L_f.bmp,None,L_n.bmp,None,L_m.bmp,None,L_r.bmp,None,L_s.bmp,n,0.75,0.75,,,,,0,7,7,7,,,,,,,,,,,,,,,,,,,,,,,,,,,,,,,,,,,,,,,,,,,,,,576.5365833999822,576.5365833999822,None,1,,,,,,,,,,,,,,,,,,,,,,,,,,,,,,,,,,,,11,001,2023-04-18_10h16.23.318,PGNGS_RST_750_english,2022.2.5,60.025270649682234,
L_b.bmp,None,L_k.bmp,None,L_l.bmp,None,L_c.bmp,None,L_g.bmp,None,L_q.bmp,None,L_j.bmp,None,0.75,0.75,,,,,0,8,8,8,,,,,,,,,,,,,,,,,,,,,,,,,,,,,,,,,,,,,,,,,,,,,,577.2858890000498,577.2858890000498,None,1,,,,,,,,,,,,,,,,,,,,,,,,,,,,,,,,,,,,11,001,2023-04-18_10h16.23.318,PGNGS_RST_750_english,2022.2.5,60.025270649682234,
L_n.bmp,None,L_s.bmp,n,L_s.bmp,n,L_p.bmp,None,L_l.bmp,None,L_m.bmp,None,L_d.bmp,None,0.75,0.75,,,,,0,9,9,9,,,,,,,,,,,,,,,,,,,,,,,,,,,,,,,,,,,,,,,,,,,,,,578.0352134000277,578.0352134000277,n,1,0.596096400055103,,,,,,,,,,,,,,,,,,,,,,,,,,,,,,,,,,,11,001,2023-04-18_10h16.23.318,PGNGS_RST_750_english,2022.2.5,60.025270649682234,
L_l.bmp,None,L_w.bmp,None,L_b.bmp,None,L_f.bmp,None,L_w.bmp,None,L_b.bmp,None,L_f.bmp,None,0.75,0.75,,,,,0,10,10,10,,,,,,,,,,,,,,,,,,,,,,,,,,,,,,,,,,,,,,,,,,,,,,578.7853759999853,578.7853759999853,None,1,,,,,,,,,,,,,,,,,,,,,,,,,,,,,,,,,,,,11,001,2023-04-18_10h16.23.318,PGNGS_RST_750_english,2022.2.5,60.025270649682234,
L_j.bmp,None,L_j.bmp,None,L_j.bmp,None,L_p.bmp,None,L_h.bmp,None,L_h.bmp,None,L_p.bmp,None,0.75,0.75,,,,,0,11,11,11,,,,,,,,,,,,,,,,,,,,,,,,,,,,,,,,,,,,,,,,,,,,,,579.5340610999847,579.5340610999847,None,1,,,,,,,,,,,,,,,,,,,,,,,,,,,,,,,,,,,,11,001,2023-04-18_10h16.23.318,PGNGS_RST_750_english,2022.2.5,60.025270649682234,
L_h.bmp,None,L_p.bmp,None,L_p.bmp,None,L_t.bmp,n,L_w.bmp,None,L_m.bmp,None,L_r.bmp,None,0.75,0.25,,,,,0,12,12,12,,,,,,,,,,,,,,,,,,,,,,,,,,,,,,,,,,,,,,,,,,,,,,580.2834855000256,580.2834855000256,None,1,,,,,,,,,,,,,,,,,,,,,,,,,,,,,,,,,,,,11,001,2023-04-18_10h16.23.318,PGNGS_RST_750_english,2022.2.5,60.025270649682234,
L_r.bmp,n,L_g.bmp,None,L_k.bmp,None,L_q.bmp,None,L_g.bmp,None,L_r.bmp,n,Stop.bmp,None,0.75,0.5,,,,,0,13,13,13,,,,,,,,,,,,,,,,,,,,,,,,,,,,,,,,,,,,,,,,,,,,,,581.0329181000125,581.0329181000125,None,1,,,,,,,,,,,,,,,,,,,,,,,,,,,,,,,,,,,,11,001,2023-04-18_10h16.23.318,PGNGS_RST_750_english,2022.2.5,60.025270649682234,
L_q.bmp,None,L_q.bmp,None,L_q.bmp,None,L_p.bmp,None,L_m.bmp,None,L_f.bmp,None,L_d.bmp,None,0.75,0.75,,,,,0,14,14,14,,,,,,,,,,,,,,,,,,,,,,,,,,,,,,,,,,,,,,,,,,,,,,581.7821666999953,581.7821666999953,None,1,,,,,,,,,,,,,,,,,,,,,,,,,,,,,,,,,,,,11,001,2023-04-18_10h16.23.318,PGNGS_RST_750_english,2022.2.5,60.025270649682234,
L_b.bmp,None,L_w.bmp,None,L_b.bmp,None,L_m.bmp,None,L_w.bmp,None,L_q.bmp,None,L_m.bmp,None,0.75,0.75,,,,,0,15,15,15,,,,,,,,,,,,,,,,,,,,,,,,,,,,,,,,,,,,,,,,,,,,,,582.5316425000783,582.5316425000783,None,1,,,,,,,,,,,,,,,,,,,,,,,,,,,,,,,,,,,,11,001,2023-04-18_10h16.23.318,PGNGS_RST_750_english,2022.2.5,60.025270649682234,
L_g.bmp,None,L_s.bmp,None,L_r.bmp,None,L_s.bmp,n,L_h.bmp,None,L_t.bmp,n,L_t.bmp,n,0.25,0.75,,,,,0,16,16,16,,,,,,,,,,,,,,,,,,,,,,,,,,,,,,,,,,,,,,,,,,,,,,583.2809702000814,583.2809702000814,n,0,0.6629668999230489,,,,,,,,,,,,,,,,,,,,,,,,,,,,,,,,,,,11,001,2023-04-18_10h16.23.318,PGNGS_RST_750_english,2022.2.5,60.025270649682234,
L_r.bmp,n,L_f.bmp,None,Stop.bmp,None,L_h.bmp,None,L_r.bmp,n,L_p.bmp,None,L_p.bmp,None,0.5,0.75,,,,,0,17,17,17,,,,,,,,,,,,,,,,,,,,,,,,,,,,,,,,,,,,,,,,,,,,,,584.0301863000495,584.0301863000495,None,1,,,,,,,,,,,,,,,,,,,,,,,,,,,,,,,,,,,,11,001,2023-04-18_10h16.23.318,PGNGS_RST_750_english,2022.2.5,60.025270649682234,
L_f.bmp,None,L_m.bmp,None,L_f.bmp,None,L_b.bmp,None,L_j.bmp,None,L_f.bmp,None,L_j.bmp,None,0.75,0.75,,,,,0,18,18,18,,,,,,,,,,,,,,,,,,,,,,,,,,,,,,,,,,,,,,,,,,,,,,584.7796932000201,584.7796932000201,None,1,,,,,,,,,,,,,,,,,,,,,,,,,,,,,,,,,,,,11,001,2023-04-18_10h16.23.318,PGNGS_RST_750_english,2022.2.5,60.025270649682234,
L_g.bmp,None,L_j.bmp,None,L_m.bmp,None,L_m.bmp,None,L_k.bmp,None,L_p.bmp,None,L_r.bmp,n,0.75,0.75,,,,,0,19,19,19,,,,,,,,,,,,,,,,,,,,,,,,,,,,,,,,,,,,,,,,,,,,,,585.5289626000449,585.5289626000449,None,1,,,,,,,,,,,,,,,,,,,,,,,,,,,,,,,,,,,,11,001,2023-04-18_10h16.23.318,PGNGS_RST_750_english,2022.2.5,60.025270649682234,
L_v.bmp,None,L_k.bmp,None,L_j.bmp,None,L_s.bmp,n,L_r.bmp,None,L_c.bmp,None,L_m.bmp,None,0.75,0.75,,,,,0,20,20,20,,,,,,,,,,,,,,,,,,,,,,,,,,,,,,,,,,,,,,,,,,,,,,586.2786727000494,586.2786727000494,None,1,,,,,,,,,,,,,,,,,,,,,,,,,,,,,,,,,,,,11,001,2023-04-18_10h16.23.318,PGNGS_RST_750_english,2022.2.5,60.025270649682234,
L_f.bmp,None,L_r.bmp,n,L_l.bmp,None,L_q.bmp,None,L_k.bmp,None,L_n.bmp,None,L_w.bmp,None,0.75,0.75,,,,,0,21,21,21,,,,,,,,,,,,,,,,,,,,,,,,,,,,,,,,,,,,,,,,,,,,,,587.0278043000726,587.0278043000726,None,0,,,,,,,,,,,,,,,,,,,,,,,,,,,,,,,,,,,,11,001,2023-04-18_10h16.23.318,PGNGS_RST_750_english,2022.2.5,60.025270649682234,
L_g.bmp,None,L_k.bmp,None,L_s.bmp,n,L_v.bmp,None,L_f.bmp,None,L_b.bmp,None,L_q.bmp,None,0.75,0.75,,,,,0,22,22,22,,,,,,,,,,,,,,,,,,,,,,,,,,,,,,,,,,,,,,,,,,,,,,587.7769681999926,587.7769681999926,n,0,0.23024200007785112,,,,,,,,,,,,,,,,,,,,,,,,,,,,,,,,,,,11,001,2023-04-18_10h16.23.318,PGNGS_RST_750_english,2022.2.5,60.025270649682234,
L_h.bmp,None,L_f.bmp,None,L_l.bmp,None,L_l.bmp,None,L_l.bmp,None,L_v.bmp,None,L_t.bmp,n,0.75,0.75,,,,,0,23,23,23,,,,,,,,,,,,,,,,,,,,,,,,,,,,,,,,,,,,,,,,,,,,,,588.5267350000795,588.5267350000795,None,1,,589.2760164000792,589.2760164000792,,,,,,,,,,,,,,,,,,,,,,,,,,,,,,,,,11,001,2023-04-18_10h16.23.318,PGNGS_RST_750_english,2022.2.5,60.025270649682234,
L_b.bmp,None,L_l.bmp,None,L_f.bmp,None,L_s.bmp,n,L_f.bmp,None,L_d.bmp,None,L_b.bmp,None,0.75,0.75,,,,,0,24,24,24,,,,,,,,,,,,,,,,,,,,,,,,,,,,,,,,,,,,,,,,,,,,,,589.2760164000792,589.2760164000792,None,1,,590.025306000025,590.025306000025,,,,,,,,,,,,,,,,,,,,,,,,,,,,,,,,,11,001,2023-04-18_10h16.23.318,PGNGS_RST_750_english,2022.2.5,60.025270649682234,
L_v.bmp,None,L_s.bmp,n,L_w.bmp,None,L_j.bmp,None,L_r.bmp,None,L_s.bmp,None,L_m.bmp,None,0.75,0.75,,,,,0,25,25,25,,,,,,,,,,,,,,,,,,,,,,,,,,,,,,,,,,,,,,,,,,,,,,590.025306000025,590.025306000025,None,0,,590.7748183000367,590.7748183000367,,,,,,,,,,,,,,,,,,,,,,,,,,,,,,,,,11,001,2023-04-18_10h16.23.318,PGNGS_RST_750_english,2022.2.5,60.025270649682234,
L_c.bmp,None,L_n.bmp,None,L_r.bmp,n,L_g.bmp,None,L_n.bmp,None,L_b.bmp,None,L_g.bmp,None,0.75,0.75,,,,,0,26,26,26,,,,,,,,,,,,,,,,,,,,,,,,,,,,,,,,,,,,,,,,,,,,,,590.7748183000367,590.7748183000367,n,0,0.06640280003193766,591.5244637000142,591.5244637000142,,,,,,,,,,,,,,,,,,,,,,,,,,,,,,,,,11,001,2023-04-18_10h16.23.318,PGNGS_RST_750_english,2022.2.5,60.025270649682234,
L_l.bmp,None,L_d.bmp,None,L_n.bmp,None,L_f.bmp,None,L_d.bmp,None,L_q.bmp,None,L_s.bmp,None,0.75,0.4,,,,,0,27,27,27,,,,,,,,,,,,,,,,,,,,,,,,,,,,,,,,,,,,,,,,,,,,,,591.5244637000142,591.5244637000142,None,1,,592.273741699988,592.273741699988,,,,,,,,,,,,,,,,,,,,,,,,,,,,,,,,,11,001,2023-04-18_10h16.23.318,PGNGS_RST_750_english,2022.2.5,60.025270649682234,
L_m.bmp,None,L_r.bmp,n,L_d.bmp,None,L_t.bmp,n,L_s.bmp,n,L_d.bmp,None,Stop.bmp,None,0.75,0.35,,,,,0,28,28,28,,,,,,,,,,,,,,,,,,,,,,,,,,,,,,,,,,,,,,,,,,,,,,592.273741699988,592.273741699988,None,0,,593.0227380000288,593.0227380000288,,,,,,,,,,,,,,,,,,,,,,,,,,,,,,,,,11,001,2023-04-18_10h16.23.318,PGNGS_RST_750_english,2022.2.5,60.025270649682234,
L_n.bmp,None,L_v.bmp,None,L_s.bmp,n,L_d.bmp,None,L_v.bmp,None,L_v.bmp,None,L_g.bmp,None,0.75,0.75,,,,,0,29,29,29,,,,,,,,,,,,,,,,,,,,,,,,,,,,,,,,,,,,,,,,,,,,,,593.0227380000288,593.0227380000288,n,0,0.4081366000464186,593.772149000084,593.772149000084,,,,,,,,,,,,,,,,,,,,,,,,,,,,,,,,,11,001,2023-04-18_10h16.23.318,PGNGS_RST_750_english,2022.2.5,60.025270649682234,
L_p.bmp,None,L_f.bmp,None,L_v.bmp,None,L_c.bmp,None,L_f.bmp,None,L_b.bmp,None,L_c.bmp,None,0.75,0.75,,,,,0,30,30,30,,,,,,,,,,,,,,,,,,,,,,,,,,,,,,,,,,,,,,,,,,,,,,593.772149000084,593.772149000084,None,1,,594.5214321000967,594.5214321000967,,,,,,,,,,,,,,,,,,,,,,,,,,,,,,,,,11,001,2023-04-18_10h16.23.318,PGNGS_RST_750_english,2022.2.5,60.025270649682234,
L_v.bmp,None,L_w.bmp,None,L_f.bmp,None,L_n.bmp,None,L_w.bmp,None,L_s.bmp,n,L_g.bmp,None,0.75,0.75,,,,,0,31,31,31,,,,,,,,,,,,,,,,,,,,,,,,,,,,,,,,,,,,,,,,,,,,,,594.5214321000967,594.5214321000967,None,1,,595.2710239000153,595.2710239000153,,,,,,,,,,,,,,,,,,,,,,,,,,,,,,,,,11,001,2023-04-18_10h16.23.318,PGNGS_RST_750_english,2022.2.5,60.025270649682234,
L_p.bmp,None,L_q.bmp,None,L_b.bmp,None,L_h.bmp,None,L_q.bmp,None,L_w.bmp,None,L_p.bmp,None,0.75,0.75,,,,,0,32,32,32,,,,,,,,,,,,,,,,,,,,,,,,,,,,,,,,,,,,,,,,,,,,,,595.2710239000153,595.2710239000153,None,1,,596.0200814000564,596.0200814000564,,,,,,,,,,,,,,,,,,,,,,,,,,,,,,,,,11,001,2023-04-18_10h16.23.318,PGNGS_RST_750_english,2022.2.5,60.025270649682234,
L_l.bmp,None,L_k.bmp,None,L_q.bmp,None,L_g.bmp,None,L_k.bmp,None,L_n.bmp,None,L_c.bmp,None,0.75,0.75,,,,,0,33,33,33,,,,,,,,,,,,,,,,,,,,,,,,,,,,,,,,,,,,,,,,,,,,,,596.0200814000564,596.0200814000564,None,1,,596.7697235000087,596.7697235000087,,,,,,,,,,,,,,,,,,,,,,,,,,,,,,,,,11,001,2023-04-18_10h16.23.318,PGNGS_RST_750_english,2022.2.5,60.025270649682234,
L_r.bmp,n,L_b.bmp,None,L_l.bmp,None,L_l.bmp,None,L_b.bmp,None,L_f.bmp,None,L_r.bmp,n,0.75,0.75,,,,,0,34,34,34,,,,,,,,,,,,,,,,,,,,,,,,,,,,,,,,,,,,,,,,,,,,,,596.7697235000087,596.7697235000087,None,1,,597.5197563000256,597.5197563000256,,,,,,,,,,,,,,,,,,,,,,,,,,,,,,,,,11,001,2023-04-18_10h16.23.318,PGNGS_RST_750_english,2022.2.5,60.025270649682234,
L_q.bmp,None,L_j.bmp,None,L_g.bmp,None,L_b.bmp,None,L_j.bmp,None,L_t.bmp,n,L_h.bmp,None,0.75,0.75,,,,,0,35,35,35,,,,,,,,,,,,,,,,,,,,,,,,,,,,,,,,,,,,,,,,,,,,,,597.5197563000256,597.5197563000256,None,1,,598.268562000012,598.268562000012,,,,,,,,,,,,,,,,,,,,,,,,,,,,,,,,,11,001,2023-04-18_10h16.23.318,PGNGS_RST_750_english,2022.2.5,60.025270649682234,
L_g.bmp,None,L_k.bmp,None,L_j.bmp,None,L_t.bmp,n,L_l.bmp,None,L_f.bmp,None,L_t.bmp,None,0.75,0.3,,,,,0,36,36,36,,,,,,,,,,,,,,,,,,,,,,,,,,,,,,,,,,,,,,,,,,,,,,598.268562000012,598.268562000012,None,1,,599.0181386000477,599.0181386000477,,,,,,,,,,,,,,,,,,,,,,,,,,,,,,,,,11,001,2023-04-18_10h16.23.318,PGNGS_RST_750_english,2022.2.5,60.025270649682234,
L_r.bmp,n,L_b.bmp,None,L_j.bmp,None,L_k.bmp,None,L_b.bmp,None,L_d.bmp,None,Stop.bmp,None,0.75,0.45,,,,,0,37,37,37,,,,,,,,,,,,,,,,,,,,,,,,,,,,,,,,,,,,,,,,,,,,,,599.0181386000477,599.0181386000477,None,1,,599.767322700005,599.767322700005,,,,,,,,,,,,,,,,,,,,,,,,,,,,,,,,,11,001,2023-04-18_10h16.23.318,PGNGS_RST_750_english,2022.2.5,60.025270649682234,
L_b.bmp,None,L_r.bmp,None,L_g.bmp,None,L_j.bmp,None,L_t.bmp,n,L_w.bmp,None,L_w.bmp,None,0.75,0.75,,,,,0,38,38,38,,,,,,,,,,,,,,,,,,,,,,,,,,,,,,,,,,,,,,,,,,,,,,599.767322700005,599.767322700005,None,1,,600.5166990000289,600.5166990000289,,,,,,,,,,,,,,,,,,,,,,,,,,,,,,,,,11,001,2023-04-18_10h16.23.318,PGNGS_RST_750_english,2022.2.5,60.025270649682234,
L_j.bmp,None,L_q.bmp,None,L_r.bmp,None,L_f.bmp,None,L_q.bmp,None,L_q.bmp,None,L_j.bmp,None,0.4,0.75,,,,,0,39,39,39,,,,,,,,,,,,,,,,,,,,,,,,,,,,,,,,,,,,,,,,,,,,,,600.5166990000289,600.5166990000289,None,1,,601.2660601000534,601.2660601000534,,,,,,,,,,,,,,,,,,,,,,,,,,,,,,,,,11,001,2023-04-18_10h16.23.318,PGNGS_RST_750_english,2022.2.5,60.025270649682234,
L_g.bmp,None,L_m.bmp,None,Stop.bmp,None,L_g.bmp,None,L_m.bmp,None,L_g.bmp,None,L_g.bmp,None,0.35,0.75,,,,,0,40,40,40,,,,,,,,,,,,,,,,,,,,,,,,,,,,,,,,,,,,,,,,,,,,,,601.2660601000534,601.2660601000534,None,1,,602.0154986000853,602.0154986000853,,,,,,,,,,,,,,,,,,,,,,,,,,,,,,,,,11,001,2023-04-18_10h16.23.318,PGNGS_RST_750_english,2022.2.5,60.025270649682234,
L_s.bmp,n,L_q.bmp,None,L_q.bmp,None,L_h.bmp,None,L_q.bmp,None,L_p.bmp,None,L_k.bmp,None,0.75,0.75,,,,,0,41,41,41,,,,,,,,,,,,,,,,,,,,,,,,,,,,,,,,,,,,,,,,,,,,,,602.0154986000853,602.0154986000853,None,1,,602.7647139000474,602.7647139000474,,,,,,,,,,,,,,,,,,,,,,,,,,,,,,,,,11,001,2023-04-18_10h16.23.318,PGNGS_RST_750_english,2022.2.5,60.025270649682234,
L_v.bmp,None,L_f.bmp,None,L_m.bmp,None,L_b.bmp,None,L_j.bmp,None,L_j.bmp,None,L_f.bmp,None,0.75,0.75,,,,,0,42,42,42,,,,,,,,,,,,,,,,,,,,,,,,,,,,,,,,,,,,,,,,,,,,,,602.7647139000474,602.7647139000474,None,1,,603.514226200059,603.514226200059,,,,,,,,,,,,,,,,,,,,,,,,,,,,,,,,,11,001,2023-04-18_10h16.23.318,PGNGS_RST_750_english,2022.2.5,60.025270649682234,
L_m.bmp,None,L_j.bmp,None,L_q.bmp,None,L_v.bmp,None,L_m.bmp,None,L_w.bmp,None,L_s.bmp,n,0.75,0.75,,,,,0,43,43,43,,,,,,,,,,,,,,,,,,,,,,,,,,,,,,,,,,,,,,,,,,,,,,603.514226200059,603.514226200059,None,1,,604.2636245000176,604.2636245000176,,,,,,,,,,,,,,,,,,,,,,,,,,,,,,,,,11,001,2023-04-18_10h16.23.318,PGNGS_RST_750_english,2022.2.5,60.025270649682234,
L_b.bmp,None,L_m.bmp,None,L_f.bmp,None,L_b.bmp,None,L_b.bmp,None,L_h.bmp,None,L_b.bmp,None,0.75,0.75,,,,,0,44,44,44,,,,,,,,,,,,,,,,,,,,,,,,,,,,,,,,,,,,,,,,,,,,,,604.2636245000176,604.2636245000176,None,1,,605.0126929000253,605.0126929000253,,,,,,,,,,,,,,,,,,,,,,,,,,,,,,,,,11,001,2023-04-18_10h16.23.318,PGNGS_RST_750_english,2022.2.5,60.025270649682234,
L_s.bmp,n,L_b.bmp,None,L_j.bmp,None,L_r.bmp,n,L_m.bmp,None,L_k.bmp,None,L_p.bmp,None,0.75,0.75,,,,,0,45,45,45,,,,,,,,,,,,,,,,,,,,,,,,,,,,,,,,,,,,,,,,,,,,,,605.0126929000253,605.0126929000253,None,1,,605.7623695000075,605.7623695000075,,,,,,,,,,,,,,,,,,,,,,,,,,,,,,,,,11,001,2023-04-18_10h16.23.318,PGNGS_RST_750_english,2022.2.5,60.025270649682234,
L_b.bmp,None,L_j.bmp,None,L_m.bmp,None,L_b.bmp,None,L_d.bmp,None,L_f.bmp,None,L_d.bmp,None,0.75,0.75,,,,,0,46,46,46,,,,,,,,,,,,,,,,,,,,,,,,,,,,,,,,,,,,,,,,,,,,,,605.7623695000075,605.7623695000075,None,1,,606.5118847000413,606.5118847000413,,,,,,,,,,,,,,,,,,,,,,,,,,,,,,,,,11,001,2023-04-18_10h16.23.318,PGNGS_RST_750_english,2022.2.5,60.025270649682234,
L_d.bmp,None,L_m.bmp,None,L_g.bmp,None,L_n.bmp,None,L_n.bmp,None,L_s.bmp,n,L_f.bmp,None,0.75,0.75,,,,,0,47,47,47,,,,,,,,,,,,,,,,,,,,,,,,,,,,,,,,,,,,,,,,,,,,,,606.5118847000413,606.5118847000413,None,1,,607.2611630000174,607.2611630000174,,,,,,,,,,,,,,,,,,,,,,,,,,,,,,,,,11,001,2023-04-18_10h16.23.318,PGNGS_RST_750_english,2022.2.5,60.025270649682234,
L_v.bmp,None,L_n.bmp,None,L_r.bmp,n,L_l.bmp,None,L_l.bmp,None,L_k.bmp,None,L_f.bmp,None,0.75,0.75,,,,,0,48,48,48,,,,,,,,,,,,,,,,,,,,,,,,,,,,,,,,,,,,,,,,,,,,,,607.2611630000174,607.2611630000174,None,1,,608.0105494000018,608.0105494000018,,,,,,,,,,,,,,,,,,,,,,,,,,,,,,,,,11,001,2023-04-18_10h16.23.318,PGNGS_RST_750_english,2022.2.5,60.025270649682234,
L_b.bmp,None,L_f.bmp,None,L_q.bmp,None,L_j.bmp,None,L_j.bmp,None,L_p.bmp,None,L_p.bmp,None,0.75,0.75,,,,,0,49,49,49,,,,,,,,,,,,,,,,,,,,,,,,,,,,,,,,,,,,,,,,,,,,,,608.0105494000018,608.0105494000018,None,1,,608.7600585999899,608.7600585999899,,,,,,,,,,,,,,,,,,,,,,,,,,,,,,,,,11,001,2023-04-18_10h16.23.318,PGNGS_RST_750_english,2022.2.5,60.025270649682234,
L_n.bmp,None,L_m.bmp,None,L_d.bmp,None,L_h.bmp,None,L_h.bmp,None,L_t.bmp,n,L_t.bmp,n,0.75,0.75,,,,,0,50,50,50,,,,,,,,,,,,,,,,,,,,,,,,,,,,,,,,,,,,,,,,,,,,,,608.7600585999899,608.7600585999899,None,1,,609.5096851000562,609.5096851000562,,,,,,,,,,,,,,,,,,,,,,,,,,,,,,,,,11,001,2023-04-18_10h16.23.318,PGNGS_RST_750_english,2022.2.5,60.025270649682234,
L_c.bmp,None,L_p.bmp,None,L_c.bmp,None,L_t.bmp,n,L_s.bmp,n,L_f.bmp,None,L_l.bmp,None,0.75,0.75,,,,,0,51,51,51,,,,,,,,,,,,,,,,,,,,,,,,,,,,,,,,,,,,,,,,,,,,,,609.5096851000562,609.5096851000562,None,1,,610.2586936000735,610.2586936000735,,,,,,,,,,,,,,,,,,,,,,,,,,,,,,,,,11,001,2023-04-18_10h16.23.318,PGNGS_RST_750_english,2022.2.5,60.025270649682234,
L_p.bmp,None,L_l.bmp,None,L_j.bmp,None,L_q.bmp,None,L_q.bmp,None,L_q.bmp,None,L_c.bmp,None,0.75,0.75,,,,,0,52,52,52,,,,,,,,,,,,,,,,,,,,,,,,,,,,,,,,,,,,,,,,,,,,,,610.2586936000735,610.2586936000735,None,1,,611.0081062000245,611.0081062000245,,,,,,,,,,,,,,,,,,,,,,,,,,,,,,,,,11,001,2023-04-18_10h16.23.318,PGNGS_RST_750_english,2022.2.5,60.025270649682234,
L_f.bmp,None,L_h.bmp,None,L_f.bmp,None,L_b.bmp,None,L_b.bmp,None,L_n.bmp,None,L_h.bmp,None,0.75,0.75,,,,,0,53,53,53,,,,,,,,,,,,,,,,,,,,,,,,,,,,,,,,,,,,,,,,,,,,,,611.0252708999906,611.0252708999906,None,1,,611.774328700034,611.774328700034,,,,,,,,,,,,,,,,,,,,,,,,,,,,,,,,,11,001,2023-04-18_10h16.23.318,PGNGS_RST_750_english,2022.2.5,60.025270649682234,
L_p.bmp,None,L_s.bmp,n,L_d.bmp,None,L_g.bmp,None,L_g.bmp,None,L_s.bmp,None,L_b.bmp,None,0.75,0.75,,,,,0,54,54,54,,,,,,,,,,,,,,,,,,,,,,,,,,,,,,,,,,,,,,,,,,,,,,611.774328700034,611.774328700034,n,1,0.6010389999719337,612.5234968999866,612.5234968999866,,,,,,,,,,,,,,,,,,,,,,,,,,,,,,,,,11,001,2023-04-18_10h16.23.318,PGNGS_RST_750_english,2022.2.5,60.025270649682234,
L_r.bmp,n,L_v.bmp,None,L_g.bmp,None,L_t.bmp,n,L_t.bmp,n,L_b.bmp,None,L_m.bmp,None,0.75,0.75,,,,,0,55,55,55,,,,,,,,,,,,,,,,,,,,,,,,,,,,,,,,,,,,,,,,,,,,,,612.5234968999866,612.5234968999866,None,1,,613.2731616999954,613.2731616999954,,,,,,,,,,,,,,,,,,,,,,,,,,,,,,,,,11,001,2023-04-18_10h16.23.318,PGNGS_RST_750_english,2022.2.5,60.025270649682234,
L_q.bmp,None,L_h.bmp,None,L_p.bmp,None,L_g.bmp,None,L_g.bmp,None,L_k.bmp,None,L_k.bmp,None,0.75,0.75,,,,,0,56,56,56,,,,,,,,,,,,,,,,,,,,,,,,,,,,,,,,,,,,,,,,,,,,,,613.2731616999954,613.2731616999954,None,1,,614.0223937000846,614.0223937000846,,,,,,,,,,,,,,,,,,,,,,,,,,,,,,,,,11,001,2023-04-18_10h16.23.318,PGNGS_RST_750_english,2022.2.5,60.025270649682234,
L_f.bmp,None,L_k.bmp,None,L_b.bmp,None,L_k.bmp,None,L_l.bmp,None,L_g.bmp,None,L_p.bmp,None,0.75,0.75,,,,,0,57,57,57,,,,,,,,,,,,,,,,,,,,,,,,,,,,,,,,,,,,,,,,,,,,,,614.0223937000846,614.0223937000846,None,1,,614.7716167999897,614.7716167999897,,,,,,,,,,,,,,,,,,,,,,,,,,,,,,,,,11,001,2023-04-18_10h16.23.318,PGNGS_RST_750_english,2022.2.5,60.025270649682234,
L_s.bmp,n,L_r.bmp,n,L_q.bmp,None,L_f.bmp,None,L_r.bmp,n,L_m.bmp,None,L_b.bmp,None,0.75,0.75,,,,,0,58,58,58,,,,,,,,,,,,,,,,,,,,,,,,,,,,,,,,,,,,,,,,,,,,,,614.7716167999897,614.7716167999897,None,0,,615.5211272999877,615.5211272999877,,,,,,,,,,,,,,,,,,,,,,,,,,,,,,,,,11,001,2023-04-18_10h16.23.318,PGNGS_RST_750_english,2022.2.5,60.025270649682234,
L_m.bmp,None,L_q.bmp,None,L_f.bmp,None,L_l.bmp,None,L_f.bmp,None,L_j.bmp,None,L_f.bmp,None,0.75,0.75,,,,,0,59,59,59,,,,,,,,,,,,,,,,,,,,,,,,,,,,,,,,,,,,,,,,,,,,,,615.5211272999877,615.5211272999877,n,0,0.21490779996383935,616.2705692000454,616.2705692000454,,,,,,,,,,,,,,,,,,,,,,,,,,,,,,,,,11,001,2023-04-18_10h16.23.318,PGNGS_RST_750_english,2022.2.5,60.025270649682234,
L_h.bmp,None,L_d.bmp,None,L_p.bmp,None,L_r.bmp,n,L_k.bmp,None,L_m.bmp,None,L_l.bmp,None,0.75,0.75,,,,,0,60,60,60,,,,,,,,,,,,,,,,,,,,,,,,,,,,,,,,,,,,,,,,,,,,,,616.2705692000454,616.2705692000454,None,1,,617.0200822000625,617.0200822000625,,,,,,,,,,,,,,,,,,,,,,,,,,,,,,,,,11,001,2023-04-18_10h16.23.318,PGNGS_RST_750_english,2022.2.5,60.025270649682234,
L_b.bmp,None,L_m.bmp,None,L_s.bmp,None,L_v.bmp,None,L_v.bmp,None,L_w.bmp,None,L_g.bmp,None,0.3,0.75,,,,,0,61,61,61,,,,,,,,,,,,,,,,,,,,,,,,,,,,,,,,,,,,,,,,,,,,,,617.0200822000625,617.0200822000625,None,1,,617.769626500085,617.769626500085,,,,,,,,,,,,,,,,,,,,,,,,,,,,,,,,,11,001,2023-04-18_10h16.23.318,PGNGS_RST_750_english,2022.2.5,60.025270649682234,
L_m.bmp,None,L_j.bmp,None,Stop.bmp,None,L_c.bmp,None,L_c.bmp,None,L_h.bmp,None,L_k.bmp,None,0.45,0.75,,,,,0,62,62,62,,,,,,,,,,,,,,,,,,,,,,,,,,,,,,,,,,,,,,,,,,,,,,617.769626500085,617.769626500085,None,1,,618.5184266000288,618.5184266000288,,,,,,,,,,,,,,,,,,,,,,,,,,,,,,,,,11,001,2023-04-18_10h16.23.318,PGNGS_RST_750_english,2022.2.5,60.025270649682234,
L_q.bmp,None,L_f.bmp,None,L_w.bmp,None,L_l.bmp,None,L_l.bmp,None,L_v.bmp,None,L_r.bmp,None,0.75,0.4,,,,,0,63,63,63,,,,,,,,,,,,,,,,,,,,,,,,,,,,,,,,,,,,,,,,,,,,,,618.5184266000288,618.5184266000288,None,1,,619.2679177999962,619.2679177999962,,,,,,,,,,,,,,,,,,,,,,,,,,,,,,,,,11,001,2023-04-18_10h16.23.318,PGNGS_RST_750_english,2022.2.5,60.025270649682234,
L_s.bmp,n,L_d.bmp,None,L_w.bmp,None,L_m.bmp,None,L_m.bmp,None,L_b.bmp,None,Stop.bmp,None,0.75,0.35,,,,,0,64,64,64,,,,,,,,,,,,,,,,,,,,,,,,,,,,,,,,,,,,,,,,,,,,,,619.2679177999962,619.2679177999962,None,1,,620.0172003000043,620.0172003000043,,,,,,,,,,,,,,,,,,,,,,,,,,,,,,,,,11,001,2023-04-18_10h16.23.318,PGNGS_RST_750_english,2022.2.5,60.025270649682234,
L_v.bmp,None,L_b.bmp,None,L_h.bmp,None,L_n.bmp,None,L_n.bmp,None,L_s.bmp,n,L_m.bmp,None,0.75,0.75,,,,,0,65,65,65,,,,,,,,,,,,,,,,,,,,,,,,,,,,,,,,,,,,,,,,,,,,,,620.0172003000043,620.0172003000043,None,1,,620.7668566000648,620.7668566000648,,,,,,,,,,,,,,,,,,,,,,,,,,,,,,,,,11,001,2023-04-18_10h16.23.318,PGNGS_RST_750_english,2022.2.5,60.025270649682234,
L_l.bmp,None,L_p.bmp,None,L_l.bmp,None,L_r.bmp,n,L_p.bmp,None,L_v.bmp,None,L_d.bmp,None,0.75,0.75,,,,,0,66,66,66,,,,,,,,,,,,,,,,,,,,,,,,,,,,,,,,,,,,,,,,,,,,,,620.7668566000648,620.7668566000648,None,1,,621.5161676000571,621.5161676000571,,,,,,,,,,,,,,,,,,,,,,,,,,,,,,,,,11,001,2023-04-18_10h16.23.318,PGNGS_RST_750_english,2022.2.5,60.025270649682234,
L_s.bmp,n,L_w.bmp,None,L_m.bmp,None,L_f.bmp,None,L_v.bmp,None,L_g.bmp,None,L_b.bmp,None,0.75,0.75,,,,,0,67,67,67,,,,,,,,,,,,,,,,,,,,,,,,,,,,,,,,,,,,,,,,,,,,,,621.5161676000571,621.5161676000571,None,1,,622.265619300073,622.265619300073,,,,,,,,,,,,,,,,,,,,,,,,,,,,,,,,,11,001,2023-04-18_10h16.23.318,PGNGS_RST_750_english,2022.2.5,60.025270649682234,
L_j.bmp,None,L_d.bmp,None,L_j.bmp,None,L_p.bmp,None,L_p.bmp,None,L_j.bmp,None,L_s.bmp,n,0.75,0.75,,,,,0,68,68,68,,,,,,,,,,,,,,,,,,,,,,,,,,,,,,,,,,,,,,,,,,,,,,622.265619300073,622.265619300073,None,1,,623.0147572000278,623.0147572000278,,,,,,,,,,,,,,,,,,,,,,,,,,,,,,,,,11,001,2023-04-18_10h16.23.318,PGNGS_RST_750_english,2022.2.5,60.025270649682234,
L_g.bmp,None,L_f.bmp,None,L_p.bmp,None,L_l.bmp,None,L_l.bmp,None,L_b.bmp,None,L_b.bmp,None,0.75,0.75,,,,,0,69,69,69,,,,,,,,,,,,,,,,,,,,,,,,,,,,,,,,,,,,,,,,,,,,,,623.0147572000278,623.0147572000278,None,1,,623.7642108000582,623.7642108000582,,,,,,,,,,,,,,,,,,,,,,,,,,,,,,,,,11,001,2023-04-18_10h16.23.318,PGNGS_RST_750_english,2022.2.5,60.025270649682234,
L_f.bmp,None,L_r.bmp,None,L_g.bmp,None,L_r.bmp,n,L_r.bmp,None,L_r.bmp,n,L_j.bmp,None,0.75,0.75,,,,,0,70,70,70,,,,,,,,,,,,,,,,,,,,,,,,,,,,,,,,,,,,,,,,,,,,,,623.7642108000582,623.7642108000582,None,1,,624.5137064000592,624.5137064000592,,,,,,,,,,,,,,,,,,,,,,,,,,,,,,,,,11,001,2023-04-18_10h16.23.318,PGNGS_RST_750_english,2022.2.5,60.025270649682234,
L_d.bmp,None,L_p.bmp,None,L_f.bmp,None,L_q.bmp,None,L_q.bmp,None,L_g.bmp,None,L_v.bmp,None,0.75,0.75,,,,,0,71,71,71,,,,,,,,,,,,,,,,,,,,,,,,,,,,,,,,,,,,,,,,,,,,,,624.5137064000592,624.5137064000592,None,1,,625.2632456000429,625.2632456000429,,,,,,,,,,,,,,,,,,,,,,,,,,,,,,,,,11,001,2023-04-18_10h16.23.318,PGNGS_RST_750_english,2022.2.5,60.025270649682234,
L_r.bmp,n,L_d.bmp,None,L_r.bmp,n,L_g.bmp,None,L_f.bmp,None,L_n.bmp,None,L_b.bmp,None,0.75,0.75,,,,,0,72,72,72,,,,,,,,,,,,,,,,,,,,,,,,,,,,,,,,,,,,,,,,,,,,,,625.2632456000429,625.2632456000429,None,1,,626.0123330000788,626.0123330000788,,,,,,,,,,,,,,,,,,,,,,,,,,,,,,,,,11,001,2023-04-18_10h16.23.318,PGNGS_RST_750_english,2022.2.5,60.025270649682234,
L_c.bmp,None,L_l.bmp,None,L_w.bmp,None,L_r.bmp,n,L_m.bmp,None,L_b.bmp,None,L_n.bmp,None,0.75,0.75,,,,,0,73,73,73,,,,,,,,,,,,,,,,,,,,,,,,,,,,,,,,,,,,,,,,,,,,,,626.0123330000788,626.0123330000788,None,1,,626.7616941999877,626.7616941999877,,,,,,,,,,,,,,,,,,,,,,,,,,,,,,,,,11,001,2023-04-18_10h16.23.318,PGNGS_RST_750_english,2022.2.5,60.025270649682234,
L_n.bmp,None,L_h.bmp,None,L_j.bmp,None,L_b.bmp,None,L_p.bmp,None,L_t.bmp,None,L_c.bmp,None,0.75,0.75,,,,,0,74,74,74,,,,,,,,,,,,,,,,,,,,,,,,,,,,,,,,,,,,,,,,,,,,,,626.7616941999877,626.7616941999877,None,1,,627.5111273000948,627.5111273000948,,,,,,,,,,,,,,,,,,,,,,,,,,,,,,,,,11,001,2023-04-18_10h16.23.318,PGNGS_RST_750_english,2022.2.5,60.025270649682234,
L_h.bmp,None,L_l.bmp,None,L_s.bmp,n,L_j.bmp,None,L_l.bmp,None,L_b.bmp,None,L_p.bmp,None,0.75,0.75,,,,,0,75,75,75,,,,,,,,,,,,,,,,,,,,,,,,,,,,,,,,,,,,,,,,,,,,,,627.5111273000948,627.5111273000948,None,1,,628.2606849999866,628.2606849999866,,,,,,,,,,,,,,,,,,,,,,,,,,,,,,,,,11,001,2023-04-18_10h16.23.318,PGNGS_RST_750_english,2022.2.5,60.025270649682234,
L_g.bmp,None,L_m.bmp,None,L_m.bmp,None,L_g.bmp,None,L_h.bmp,None,L_v.bmp,None,L_f.bmp,None,0.75,0.75,,,,,0,76,76,76,,,,,,,,,,,,,,,,,,,,,,,,,,,,,,,,,,,,,,,,,,,,,,628.2606849999866,628.2606849999866,None,1,,629.0100000000093,629.0100000000093,,,,,,,,,,,,,,,,,,,,,,,,,,,,,,,,,11,001,2023-04-18_10h16.23.318,PGNGS_RST_750_english,2022.2.5,60.025270649682234,
L_l.bmp,None,L_j.bmp,None,L_v.bmp,None,L_v.bmp,None,L_s.bmp,n,L_b.bmp,None,L_p.bmp,None,0.75,0.75,,,,,0,77,77,77,,,,,,,,,,,,,,,,,,,,,,,,,,,,,,,,,,,,,,,,,,,,,,629.0100000000093,629.0100000000093,None,1,,629.7596024000086,629.7596024000086,,,,,,,,,,,,,,,,,,,,,,,,,,,,,,,,,11,001,2023-04-18_10h16.23.318,PGNGS_RST_750_english,2022.2.5,60.025270649682234,
L_s.bmp,n,L_p.bmp,None,L_d.bmp,None,L_s.bmp,n,L_v.bmp,None,L_h.bmp,None,L_t.bmp,n,0.75,0.75,,,,,0,78,78,78,,,,,,,,,,,,,,,,,,,,,,,,,,,,,,,,,,,,,,,,,,,,,,629.7596024000086,629.7596024000086,None,1,,630.5090796999866,630.5090796999866,,,,,,,,,,,,,,,,,,,,,,,,,,,,,,,,,11,001,2023-04-18_10h16.23.318,PGNGS_RST_750_english,2022.2.5,60.025270649682234,
L_f.bmp,None,L_b.bmp,None,L_r.bmp,n,L_b.bmp,None,L_p.bmp,None,L_g.bmp,None,L_w.bmp,None,0.75,0.75,,,,,0,79,79,79,,,,,,,,,,,,,,,,,,,,,,,,,,,,,,,,,,,,,,,,,,,,,,630.5090796999866,630.5090796999866,None,1,,631.2581150000915,631.2581150000915,,,,,,,,,,,,,,,,,,,,,,,,,,,,,,,,,11,001,2023-04-18_10h16.23.318,PGNGS_RST_750_english,2022.2.5,60.025270649682234,
L_n.bmp,None,L_f.bmp,None,L_j.bmp,None,L_v.bmp,None,L_d.bmp,None,L_f.bmp,None,L_j.bmp,None,0.75,0.75,,,,,0,80,80,80,,,,,,,,,,,,,,,,,,,,,,,,,,,,,,,,,,,,,,,,,,,,,,631.2581150000915,631.2581150000915,None,1,,632.0075412000297,632.0075412000297,,,,,,,,,,,,,,,,,,,,,,,,,,,,,,,,,11,001,2023-04-18_10h16.23.318,PGNGS_RST_750_english,2022.2.5,60.025270649682234,
L_w.bmp,None,L_s.bmp,n,L_d.bmp,None,L_h.bmp,None,L_s.bmp,None,L_j.bmp,None,L_s.bmp,n,0.75,0.75,,,,,0,81,81,81,,,,,,,,,,,,,,,,,,,,,,,,,,,,,,,,,,,,,,,,,,,,,,632.0247877000365,632.0247877000365,n,1,0.6228083000751212,632.7736095000291,632.7736095000291,,,,,,,,,,,,,,,,,,,,,,,,,,,,,,,,,11,001,2023-04-18_10h16.23.318,PGNGS_RST_750_english,2022.2.5,60.025270649682234,
L_b.bmp,None,L_l.bmp,None,L_g.bmp,None,L_w.bmp,None,L_j.bmp,None,L_k.bmp,None,L_m.bmp,None,0.75,0.75,,,,,0,82,82,82,,,,,,,,,,,,,,,,,,,,,,,,,,,,,,,,,,,,,,,,,,,,,,632.7736095000291,632.7736095000291,None,1,,633.5228619000409,633.5228619000409,,,,,,,,,,,,,,,,,,,,,,,,,,,,,,,,,11,001,2023-04-18_10h16.23.318,PGNGS_RST_750_english,2022.2.5,60.025270649682234,
L_v.bmp,None,L_j.bmp,None,L_m.bmp,None,L_m.bmp,None,L_d.bmp,None,L_b.bmp,None,L_h.bmp,None,0.75,0.75,,,,,0,83,83,83,,,,,,,,,,,,,,,,,,,,,,,,,,,,,,,,,,,,,,,,,,,,,,633.5228619000409,633.5228619000409,None,1,,634.272352,634.272352,,,,,,,,,,,,,,,,,,,,,,,,,,,,,,,,,11,001,2023-04-18_10h16.23.318,PGNGS_RST_750_english,2022.2.5,60.025270649682234,
L_s.bmp,n,L_r.bmp,n,L_s.bmp,None,L_j.bmp,None,L_b.bmp,None,L_l.bmp,None,L_b.bmp,None,0.4,0.75,,,,,0,84,84,84,,,,,,,,,,,,,,,,,,,,,,,,,,,,,,,,,,,,,,,,,,,,,,634.272352,634.272352,None,0,,635.0215283000143,635.0215283000143,,,,,,,,,,,,,,,,,,,,,,,,,,,,,,,,,11,001,2023-04-18_10h16.23.318,PGNGS_RST_750_english,2022.2.5,60.025270649682234,
L_q.bmp,None,L_m.bmp,None,Stop.bmp,None,L_m.bmp,None,L_t.bmp,n,L_t.bmp,n,L_m.bmp,None,0.35,0.75,,,,,0,85,85,85,,,,,,,,,,,,,,,,,,,,,,,,,,,,,,,,,,,,,,,,,,,,,,635.0215283000143,635.0215283000143,n,0,0.10579980001784861,635.7710979999974,635.7710979999974,,,,,,,,,,,,,,,,,,,,,,,,,,,,,,,,,11,001,2023-04-18_10h16.23.318,PGNGS_RST_750_english,2022.2.5,60.025270649682234,
L_d.bmp,None,L_v.bmp,None,L_m.bmp,None,L_g.bmp,None,L_q.bmp,None,L_g.bmp,None,L_w.bmp,None,0.75,0.75,,,,,0,86,86,86,,,,,,,,,,,,,,,,,,,,,,,,,,,,,,,,,,,,,,,,,,,,,,635.7710979999974,635.7710979999974,None,1,,636.5209101000801,636.5209101000801,,,,,,,,,,,,,,,,,,,,,,,,,,,,,,,,,11,001,2023-04-18_10h16.23.318,PGNGS_RST_750_english,2022.2.5,60.025270649682234,
L_r.bmp,n,L_d.bmp,None,L_q.bmp,None,L_k.bmp,None,L_m.bmp,None,L_h.bmp,None,L_t.bmp,None,0.75,0.3,,,,,0,87,87,87,,,,,,,,,,,,,,,,,,,,,,,,,,,,,,,,,,,,,,,,,,,,,,636.5209101000801,636.5209101000801,None,1,,,,,,,,,,,,,,,,,,,,,,,,,,,,,,,,,,,,11,001,2023-04-18_10h16.23.318,PGNGS_RST_750_english,2022.2.5,60.025270649682234,
L_v.bmp,None,L_s.bmp,n,L_d.bmp,None,L_b.bmp,None,L_q.bmp,None,L_n.bmp,None,Stop.bmp,None,0.75,0.45,,,,,0,88,88,88,,,,,,,,,,,,,,,,,,,,,,,,,,,,,,,,,,,,,,,,,,,,,,637.2863980000839,637.2863980000839,n,1,0.6090738999191672,,,,,,,,,,,,,,,,,,,,,,,,,,,,,,,,,,,11,001,2023-04-18_10h16.23.318,PGNGS_RST_750_english,2022.2.5,60.025270649682234,
L_c.bmp,None,L_j.bmp,None,L_r.bmp,n,L_r.bmp,n,L_s.bmp,n,L_c.bmp,None,L_v.bmp,None,0.75,0.75,,,,,0,89,89,89,,,,,,,,,,,,,,,,,,,,,,,,,,,,,,,,,,,,,,,,,,,,,,638.0357841000659,638.0357841000659,None,1,,,,,,,,,,,,,,,,,,,,,,,,,,,,,,,,,,,,11,001,2023-04-18_10h16.23.318,PGNGS_RST_750_english,2022.2.5,60.025270649682234,
L_j.bmp,None,L_d.bmp,None,L_b.bmp,None,L_n.bmp,None,L_d.bmp,None,L_k.bmp,None,L_l.bmp,None,0.75,0.75,,,,,0,90,90,90,,,,,,,,,,,,,,,,,,,,,,,,,,,,,,,,,,,,,,,,,,,,,,638.7854402000085,638.7854402000085,None,1,,,,,,,,,,,,,,,,,,,,,,,,,,,,,,,,,,,,11,001,2023-04-18_10h16.23.318,PGNGS_RST_750_english,2022.2.5,60.025270649682234,
L_k.bmp,None,L_b.bmp,None,L_p.bmp,None,L_q.bmp,None,L_w.bmp,None,L_d.bmp,None,L_r.bmp,n,0.75,0.75,,,,,0,91,91,91,,,,,,,,,,,,,,,,,,,,,,,,,,,,,,,,,,,,,,,,,,,,,,639.5345110000344,639.5345110000344,None,1,,,,,,,,,,,,,,,,,,,,,,,,,,,,,,,,,,,,11,001,2023-04-18_10h16.23.318,PGNGS_RST_750_english,2022.2.5,60.025270649682234,
L_w.bmp,None,L_s.bmp,None,L_s.bmp,n,L_f.bmp,None,L_p.bmp,None,L_f.bmp,None,L_v.bmp,None,0.75,0.75,,,,,0,92,92,92,,,,,,,,,,,,,,,,,,,,,,,,,,,,,,,,,,,,,,,,,,,,,,640.2841582000256,640.2841582000256,n,0,0.6838421999709681,,,,,,,,,,,,,,,,,,,,,,,,,,,,,,,,,,,11,001,2023-04-18_10h16.23.318,PGNGS_RST_750_english,2022.2.5,60.025270649682234,
L_s.bmp,n,L_q.bmp,None,L_f.bmp,None,L_t.bmp,n,L_f.bmp,None,L_g.bmp,None,L_c.bmp,None,0.75,0.75,,,,,0,93,93,93,,,,,,,,,,,,,,,,,,,,,,,,,,,,,,,,,,,,,,,,,,,,,,641.0335246000905,641.0335246000905,None,1,,,,,,,,,,,,,,,,,,,,,,,,,,,,,,,,,,,,11,001,2023-04-18_10h16.23.318,PGNGS_RST_750_english,2022.2.5,60.025270649682234,
L_f.bmp,None,L_m.bmp,None,L_b.bmp,None,L_p.bmp,None,L_s.bmp,None,L_j.bmp,None,L_k.bmp,None,0.75,0.75,,,,,0,94,94,94,,,,,,,,,,,,,,,,,,,,,,,,,,,,,,,,,,,,,,,,,,,,,,641.7827087000478,641.7827087000478,None,1,,,,,,,,,,,,,,,,,,,,,,,,,,,,,,,,,,,,11,001,2023-04-18_10h16.23.318,PGNGS_RST_750_english,2022.2.5,60.025270649682234,
L_m.bmp,None,L_q.bmp,None,L_m.bmp,None,L_k.bmp,None,L_w.bmp,None,L_r.bmp,n,L_q.bmp,None,0.75,0.75,,,,,0,95,95,95,,,,,,,,,,,,,,,,,,,,,,,,,,,,,,,,,,,,,,,,,,,,,,642.5322362000588,642.5322362000588,None,1,,,,,,,,,,,,,,,,,,,,,,,,,,,,,,,,,,,,11,001,2023-04-18_10h16.23.318,PGNGS_RST_750_english,2022.2.5,60.025270649682234,
L_g.bmp,None,L_d.bmp,None,L_r.bmp,n,L_g.bmp,None,L_m.bmp,None,L_l.bmp,None,L_d.bmp,None,0.75,0.75,,,,,0,96,96,96,,,,,,,,,,,,,,,,,,,,,,,,,,,,,,,,,,,,,,,,,,,,,,643.2820207000477,643.2820207000477,None,1,,,,,,,,,,,,,,,,,,,,,,,,,,,,,,,,,,,,11,001,2023-04-18_10h16.23.318,PGNGS_RST_750_english,2022.2.5,60.025270649682234,
L_l.bmp,None,L_r.bmp,n,L_p.bmp,None,L_f.bmp,None,L_t.bmp,n,L_v.bmp,None,L_t.bmp,n,0.75,0.75,,,,,0,97,97,97,,,,,,,,,,,,,,,,,,,,,,,,,,,,,,,,,,,,,,,,,,,,,,644.0308728000382,644.0308728000382,None,0,,,,,,,,,,,,,,,,,,,,,,,,,,,,,,,,,,,,11,001,2023-04-18_10h16.23.318,PGNGS_RST_750_english,2022.2.5,60.025270649682234,
L_w.bmp,None,L_w.bmp,None,L_d.bmp,None,L_k.bmp,None,L_p.bmp,None,L_s.bmp,None,L_f.bmp,None,0.75,0.75,,,,,0,98,98,98,,,,,,,,,,,,,,,,,,,,,,,,,,,,,,,,,,,,,,,,,,,,,,644.780516800005,644.780516800005,n,0,0.09088220004923642,,,,,,,,,,,,,,,,,,,,,,,,,,,,,,,,,,,11,001,2023-04-18_10h16.23.318,PGNGS_RST_750_english,2022.2.5,60.025270649682234,
L_h.bmp,None,L_p.bmp,None,L_s.bmp,n,L_q.bmp,None,L_d.bmp,None,L_q.bmp,None,L_m.bmp,None,0.75,0.75,,,,,0,99,99,99,,,,,,,,,,,,,,,,,,,,,,,,,,,,,,,,,,,,,,,,,,,,,,645.5298459000187,645.5298459000187,None,1,,,,,,,,,,,,,,,,,,,,,,,,,,,,,,,,,,,,11,001,2023-04-18_10h16.23.318,PGNGS_RST_750_english,2022.2.5,60.025270649682234,
L_w.bmp,None,L_s.bmp,n,L_m.bmp,None,L_w.bmp,None,L_r.bmp,n,L_m.bmp,None,L_g.bmp,None,0.75,0.75,,,,,0,100,100,100,,,,,,,,,,,,,,,,,,,,,,,,,,,,,,,,,,,,,,,,,,,,,,646.2790433000773,646.2790433000773,None,0,,,,,,,,,,,,,,,,,,,,,,,,,,,,,,,,,,,,11,001,2023-04-18_10h16.23.318,PGNGS_RST_750_english,2022.2.5,60.025270649682234,
L_g.bmp,None,L_f.bmp,None,L_q.bmp,None,L_j.bmp,None,L_m.bmp,None,L_b.bmp,None,L_l.bmp,None,0.75,0.75,,,,,0,101,101,101,,,,,,,,,,,,,,,,,,,,,,,,,,,,,,,,,,,,,,,,,,,,,,647.0285451000091,647.0285451000091,None,1,,,,,,,,,,,,,,,,,,,,,,,,,,,,,,,,,,,,11,001,2023-04-18_10h16.23.318,PGNGS_RST_750_english,2022.2.5,60.025270649682234,
L_m.bmp,None,L_w.bmp,None,L_l.bmp,None,L_p.bmp,None,L_q.bmp,None,L_h.bmp,None,L_d.bmp,None,0.75,0.75,,,,,0,102,102,102,,,,,,,,,,,,,,,,,,,,,,,,,,,,,,,,,,,,,,,,,,,,,,647.7778333000606,647.7778333000606,None,1,,,,,,,,,,,,,,,,,,,,,,,,,,,,,,,,,,,,11,001,2023-04-18_10h16.23.318,PGNGS_RST_750_english,2022.2.5,60.025270649682234,
L_w.bmp,None,L_m.bmp,None,L_r.bmp,n,L_g.bmp,None,L_k.bmp,None,L_m.bmp,None,L_h.bmp,None,0.75,0.75,,,,,0,103,103,103,,,,,,,,,,,,,,,,,,,,,,,,,,,,,,,,,,,,,,,,,,,,,,648.52732870006,648.52732870006,None,1,,,,,,,,,,,,,,,,,,,,,,,,,,,,,,,,,,,,11,001,2023-04-18_10h16.23.318,PGNGS_RST_750_english,2022.2.5,60.025270649682234,
L_h.bmp,None,L_r.bmp,n,L_g.bmp,None,L_q.bmp,None,L_t.bmp,n,L_s.bmp,n,L_d.bmp,None,0.75,0.75,,,,,0,104,104,104,,,,,,,,,,,,,,,,,,,,,,,,,,,,,,,,,,,,,,,,,,,,,,649.2765051000752,649.2765051000752,None,0,,,,,,,,,,,,,,,,,,,,,,,,,,,,,,,,,,,,11,001,2023-04-18_10h16.23.318,PGNGS_RST_750_english,2022.2.5,60.025270649682234,
L_r.bmp,n,L_p.bmp,None,L_m.bmp,None,L_w.bmp,None,L_b.bmp,None,L_v.bmp,None,L_g.bmp,None,0.75,0.75,,,,,0,105,105,105,,,,,,,,,,,,,,,,,,,,,,,,,,,,,,,,,,,,,,,,,,,,,,650.025959599996,650.025959599996,n,0,0.12485580006614327,650.7753959000111,650.7753959000111,,,,,,,,,,,,,,,,,,,,,,,,,,,,,,,,,11,001,2023-04-18_10h16.23.318,PGNGS_RST_750_english,2022.2.5,60.025270649682234,
L_b.bmp,None,L_d.bmp,None,L_k.bmp,None,L_d.bmp,None,L_m.bmp,None,L_q.bmp,None,L_m.bmp,None,0.75,0.75,,,,,0,106,106,106,,,,,,,,,,,,,,,,,,,,,,,,,,,,,,,,,,,,,,,,,,,,,,650.7753959000111,650.7753959000111,None,1,,651.5249910000712,651.5249910000712,,,,,,,,,,,,,,,,,,,,,,,,,,,,,,,,,11,001,2023-04-18_10h16.23.318,PGNGS_RST_750_english,2022.2.5,60.025270649682234,
L_v.bmp,None,L_c.bmp,None,L_c.bmp,None,L_f.bmp,None,L_g.bmp,None,L_t.bmp,n,L_d.bmp,None,0.75,0.75,,,,,0,107,107,107,,,,,,,,,,,,,,,,,,,,,,,,,,,,,,,,,,,,,,,,,,,,,,651.5249910000712,651.5249910000712,None,1,,652.274160400033,652.274160400033,,,,,,,,,,,,,,,,,,,,,,,,,,,,,,,,,11,001,2023-04-18_10h16.23.318,PGNGS_RST_750_english,2022.2.5,60.025270649682234,
L_h.bmp,None,L_s.bmp,n,L_s.bmp,None,L_s.bmp,n,L_t.bmp,None,L_p.bmp,None,L_h.bmp,None,0.3,0.75,,,,,0,108,108,108,,,,,,,,,,,,,,,,,,,,,,,,,,,,,,,,,,,,,,,,,,,,,,652.274160400033,652.274160400033,None,0,,653.023581400048,653.023581400048,,,,,,,,,,,,,,,,,,,,,,,,,,,,,,,,,11,001,2023-04-18_10h16.23.318,PGNGS_RST_750_english,2022.2.5,60.025270649682234,
L_w.bmp,None,L_q.bmp,None,Stop.bmp,None,L_f.bmp,None,L_g.bmp,None,L_f.bmp,None,L_r.bmp,n,0.45,0.75,,,,,0,109,109,109,,,,,,,,,,,,,,,,,,,,,,,,,,,,,,,,,,,,,,,,,,,,,,653.023581400048,653.023581400048,n,0,0.15156839997507632,653.7728336000582,653.7728336000582,,,,,,,,,,,,,,,,,,,,,,,,,,,,,,,,,11,001,2023-04-18_10h16.23.318,PGNGS_RST_750_english,2022.2.5,60.025270649682234,
L_m.bmp,None,L_k.bmp,None,L_k.bmp,None,L_n.bmp,None,L_h.bmp,None,L_p.bmp,None,L_k.bmp,None,0.75,0.75,,,,,0,110,110,110,,,,,,,,,,,,,,,,,,,,,,,,,,,,,,,,,,,,,,,,,,,,,,653.7728336000582,653.7728336000582,None,1,,654.5224471000256,654.5224471000256,,,,,,,,,,,,,,,,,,,,,,,,,,,,,,,,,11,001,2023-04-18_10h16.23.318,PGNGS_RST_750_english,2022.2.5,60.025270649682234,
L_j.bmp,None,L_b.bmp,None,L_f.bmp,None,L_w.bmp,None,L_g.bmp,None,L_c.bmp,None,L_q.bmp,None,0.75,0.75,,,,,0,111,111,111,,,,,,,,,,,,,,,,,,,,,,,,,,,,,,,,,,,,,,,,,,,,,,654.5224471000256,654.5224471000256,None,1,,655.2716165999882,655.2716165999882,,,,,,,,,,,,,,,,,,,,,,,,,,,,,,,,,11,001,2023-04-18_10h16.23.318,PGNGS_RST_750_english,2022.2.5,60.025270649682234,
L_m.bmp,None,L_r.bmp,n,L_p.bmp,None,L_b.bmp,None,L_p.bmp,None,L_n.bmp,None,L_s.bmp,n,0.75,0.75,,,,,0,112,112,112,,,,,,,,,,,,,,,,,,,,,,,,,,,,,,,,,,,,,,,,,,,,,,655.2716165999882,655.2716165999882,n,1,0.5918271000264212,656.0211523000617,656.0211523000617,,,,,,,,,,,,,,,,,,,,,,,,,,,,,,,,,11,001,2023-04-18_10h16.23.318,PGNGS_RST_750_english,2022.2.5,60.025270649682234,
L_g.bmp,None,L_m.bmp,None,L_c.bmp,None,L_s.bmp,n,L_c.bmp,None,L_b.bmp,None,L_q.bmp,None,0.75,0.75,,,,,0,113,113,113,,,,,,,,,,,,,,,,,,,,,,,,,,,,,,,,,,,,,,,,,,,,,,656.0211523000617,656.0211523000617,None,1,,656.7706413000124,656.7706413000124,,,,,,,,,,,,,,,,,,,,,,,,,,,,,,,,,11,001,2023-04-18_10h16.23.318,PGNGS_RST_750_english,2022.2.5,60.025270649682234,
L_k.bmp,None,L_l.bmp,None,L_r.bmp,n,L_v.bmp,None,L_r.bmp,n,L_v.bmp,None,L_f.bmp,None,0.75,0.75,,,,,0,114,114,114,,,,,,,,,,,,,,,,,,,,,,,,,,,,,,,,,,,,,,,,,,,,,,656.7706413000124,656.7706413000124,None,1,,657.5201125000603,657.5201125000603,,,,,,,,,,,,,,,,,,,,,,,,,,,,,,,,,11,001,2023-04-18_10h16.23.318,PGNGS_RST_750_english,2022.2.5,60.025270649682234,
L_b.bmp,None,L_h.bmp,None,L_k.bmp,None,L_q.bmp,None,L_h.bmp,None,L_d.bmp,None,L_l.bmp,None,0.75,0.75,,,,,0,115,115,115,,,,,,,,,,,,,,,,,,,,,,,,,,,,,,,,,,,,,,,,,,,,,,657.5201125000603,657.5201125000603,None,1,,658.2690621000947,658.2690621000947,,,,,,,,,,,,,,,,,,,,,,,,,,,,,,,,,11,001,2023-04-18_10h16.23.318,PGNGS_RST_750_english,2022.2.5,60.025270649682234,
L_r.bmp,n,L_g.bmp,None,L_h.bmp,None,L_d.bmp,None,L_d.bmp,None,L_b.bmp,None,L_f.bmp,None,0.75,0.75,,,,,0,116,116,116,,,,,,,,,,,,,,,,,,,,,,,,,,,,,,,,,,,,,,,,,,,,,,658.2690621000947,658.2690621000947,None,1,,659.018695200095,659.018695200095,,,,,,,,,,,,,,,,,,,,,,,,,,,,,,,,,11,001,2023-04-18_10h16.23.318,PGNGS_RST_750_english,2022.2.5,60.025270649682234,
